ID;timestamp;phase;block;trial;ID_item;img;training;est;true;rt_ms;response_duration_ms;time_stim_shown;first_input;input_values;input_times;strategy;food_knowledge;quality;cheated;age;gender;undisturbed;undisturbed_specific;technical_problems;technical_problems_specific
cugzv37dfs82;2025-04-24;training;1;0;Chicken;Bild53.png;1;0;2;50603,299999999814;75;1559053,000;1608700;0;1608700;Yeah, kind of. I mostly went with what I already know about food. For example, I know that plain roasted chicken doesn’t really have carbs, it's mostly protein. So I just used basic knowledge of what’s in different types of foods, like meats, veggies, and carbs. I didn’t overthink it, just relied on common sense and what I’ve seen on food labels before.;5;yes;no;23;female;yes;;no;
cugzv37dfs82;2025-04-24;training;1;1;Spaghetti;Bild1.png;1;2;28;3933,500000000000;105;1612535,100;1615492;2;1615492;Yeah, kind of. I mostly went with what I already know about food. For example, I know that plain roasted chicken doesn’t really have carbs, it's mostly protein. So I just used basic knowledge of what’s in different types of foods, like meats, veggies, and carbs. I didn’t overthink it, just relied on common sense and what I’ve seen on food labels before.;5;yes;no;23;female;yes;;no;
cugzv37dfs82;2025-04-24;training;1;2;Apple turnover;Bild65.png;1;3;34;5949,799999999814;107;1618396,900;1623387;3;1623387;Yeah, kind of. I mostly went with what I already know about food. For example, I know that plain roasted chicken doesn’t really have carbs, it's mostly protein. So I just used basic knowledge of what’s in different types of foods, like meats, veggies, and carbs. I didn’t overthink it, just relied on common sense and what I’ve seen on food labels before.;5;yes;no;23;female;yes;;no;
cugzv37dfs82;2025-04-24;training;1;3;Rice cake;Bild79.png;1;10;77;3609,400000000140;99;1626791,700;1628604;1, 0;1628604, 1629495;Yeah, kind of. I mostly went with what I already know about food. For example, I know that plain roasted chicken doesn’t really have carbs, it's mostly protein. So I just used basic knowledge of what’s in different types of foods, like meats, veggies, and carbs. I didn’t overthink it, just relied on common sense and what I’ve seen on food labels before.;5;yes;no;23;female;yes;;no;
cugzv37dfs82;2025-04-24;training;1;4;Nutella;Bild54.png;1;10;57;3168,399999999907;75;1632637,400;1634207;1, 0;1634207, 1634860;Yeah, kind of. I mostly went with what I already know about food. For example, I know that plain roasted chicken doesn’t really have carbs, it's mostly protein. So I just used basic knowledge of what’s in different types of foods, like meats, veggies, and carbs. I didn’t overthink it, just relied on common sense and what I’ve seen on food labels before.;5;yes;no;23;female;yes;;no;
cugzv37dfs82;2025-04-24;training;1;5;Walnuts;Bild70.png;1;10;4;3142,500000000000;99;1637134,500;1639086;1, 0;1639086, 1639661;Yeah, kind of. I mostly went with what I already know about food. For example, I know that plain roasted chicken doesn’t really have carbs, it's mostly protein. So I just used basic knowledge of what’s in different types of foods, like meats, veggies, and carbs. I didn’t overthink it, just relied on common sense and what I’ve seen on food labels before.;5;yes;no;23;female;yes;;no;
cugzv37dfs82;2025-04-24;training;1;6;Corn;Bild16.png;1;4;11;2153,500000000000;54;1641465,900;1642952;4;1642952;Yeah, kind of. I mostly went with what I already know about food. For example, I know that plain roasted chicken doesn’t really have carbs, it's mostly protein. So I just used basic knowledge of what’s in different types of foods, like meats, veggies, and carbs. I didn’t overthink it, just relied on common sense and what I’ve seen on food labels before.;5;yes;no;23;female;yes;;no;
cugzv37dfs82;2025-04-24;training;1;7;Oat flakes;Bild5.png;1;5;60;2380,299999999814;108;1644896,900;1646613;5;1646613;Yeah, kind of. I mostly went with what I already know about food. For example, I know that plain roasted chicken doesn’t really have carbs, it's mostly protein. So I just used basic knowledge of what’s in different types of foods, like meats, veggies, and carbs. I didn’t overthink it, just relied on common sense and what I’ve seen on food labels before.;5;yes;no;23;female;yes;;no;
cugzv37dfs82;2025-04-24;training;1;8;Chocolate cake;Bild66.png;1;50;50;3590,399999999907;43;1648410,500;1650550;5, 0;1650550, 1650996;Yeah, kind of. I mostly went with what I already know about food. For example, I know that plain roasted chicken doesn’t really have carbs, it's mostly protein. So I just used basic knowledge of what’s in different types of foods, like meats, veggies, and carbs. I didn’t overthink it, just relied on common sense and what I’ve seen on food labels before.;5;yes;no;23;female;yes;;no;
cugzv37dfs82;2025-04-24;training;1;9;Gummy bears;Bild59.png;1;2;77;3424,099999999627;73;1652991,600;1654855;2;1654855;Yeah, kind of. I mostly went with what I already know about food. For example, I know that plain roasted chicken doesn’t really have carbs, it's mostly protein. So I just used basic knowledge of what’s in different types of foods, like meats, veggies, and carbs. I didn’t overthink it, just relied on common sense and what I’ve seen on food labels before.;5;yes;no;23;female;yes;;no;
cugzv37dfs82;2025-04-24;training;1;10;Chickpeas;Bild72.png;1;10;16;2970,899999999907;92;1657237,900;1658957;1, 0;1658957, 1659595;Yeah, kind of. I mostly went with what I already know about food. For example, I know that plain roasted chicken doesn’t really have carbs, it's mostly protein. So I just used basic knowledge of what’s in different types of foods, like meats, veggies, and carbs. I didn’t overthink it, just relied on common sense and what I’ve seen on food labels before.;5;yes;no;23;female;yes;;no;
cugzv37dfs82;2025-04-24;training;1;11;Mushrooms;Bild22.png;1;12;1;2741,000000000000;100;1661102,100;1662618;1, 2;1662618, 1663237;Yeah, kind of. I mostly went with what I already know about food. For example, I know that plain roasted chicken doesn’t really have carbs, it's mostly protein. So I just used basic knowledge of what’s in different types of foods, like meats, veggies, and carbs. I didn’t overthink it, just relied on common sense and what I’ve seen on food labels before.;5;yes;no;23;female;yes;;no;
cugzv37dfs82;2025-04-24;training;2;0;Walnuts;Bild70.png;1;12;4;4134,699999999721;120;1665683,100;1668701;1, 2;1668701, 1669255;Yeah, kind of. I mostly went with what I already know about food. For example, I know that plain roasted chicken doesn’t really have carbs, it's mostly protein. So I just used basic knowledge of what’s in different types of foods, like meats, veggies, and carbs. I didn’t overthink it, just relied on common sense and what I’ve seen on food labels before.;5;yes;no;23;female;yes;;no;
cugzv37dfs82;2025-04-24;training;2;1;Mushrooms;Bild22.png;1;10;1;6443,399999999907;119;1670762,400;1675472;1, 0;1675472, 1676116;Yeah, kind of. I mostly went with what I already know about food. For example, I know that plain roasted chicken doesn’t really have carbs, it's mostly protein. So I just used basic knowledge of what’s in different types of foods, like meats, veggies, and carbs. I didn’t overthink it, just relied on common sense and what I’ve seen on food labels before.;5;yes;no;23;female;yes;;no;
cugzv37dfs82;2025-04-24;training;2;2;Chicken;Bild53.png;1;77;2;3637,500000000000;101;1689383,100;1692126;7, 7;1692126, 1692418;Yeah, kind of. I mostly went with what I already know about food. For example, I know that plain roasted chicken doesn’t really have carbs, it's mostly protein. So I just used basic knowledge of what’s in different types of foods, like meats, veggies, and carbs. I didn’t overthink it, just relied on common sense and what I’ve seen on food labels before.;5;yes;no;23;female;yes;;no;
cugzv37dfs82;2025-04-24;training;2;3;Chickpeas;Bild72.png;1;1;16;3617,600000000093;79;1694213,400;1696674;1;1696674;Yeah, kind of. I mostly went with what I already know about food. For example, I know that plain roasted chicken doesn’t really have carbs, it's mostly protein. So I just used basic knowledge of what’s in different types of foods, like meats, veggies, and carbs. I didn’t overthink it, just relied on common sense and what I’ve seen on food labels before.;5;yes;no;23;female;yes;;no;
cugzv37dfs82;2025-04-24;training;2;4;Rice cake;Bild79.png;1;12;77;1971,799999999814;110;1699310,500;1700180;1, 2;1700180, 1700601;Yeah, kind of. I mostly went with what I already know about food. For example, I know that plain roasted chicken doesn’t really have carbs, it's mostly protein. So I just used basic knowledge of what’s in different types of foods, like meats, veggies, and carbs. I didn’t overthink it, just relied on common sense and what I’ve seen on food labels before.;5;yes;no;23;female;yes;;no;
cugzv37dfs82;2025-04-24;training;2;5;Nutella;Bild54.png;1;10;57;3515,500000000000;123;1702624,500;1704799;1, 0;1704799, 1705449;Yeah, kind of. I mostly went with what I already know about food. For example, I know that plain roasted chicken doesn’t really have carbs, it's mostly protein. So I just used basic knowledge of what’s in different types of foods, like meats, veggies, and carbs. I didn’t overthink it, just relied on common sense and what I’ve seen on food labels before.;5;yes;no;23;female;yes;;no;
cugzv37dfs82;2025-04-24;training;2;6;Spaghetti;Bild1.png;1;15;28;2847,300000000047;86;1706988,200;1708835;1, 5;1708835, 1709305;Yeah, kind of. I mostly went with what I already know about food. For example, I know that plain roasted chicken doesn’t really have carbs, it's mostly protein. So I just used basic knowledge of what’s in different types of foods, like meats, veggies, and carbs. I didn’t overthink it, just relied on common sense and what I’ve seen on food labels before.;5;yes;no;23;female;yes;;no;
cugzv37dfs82;2025-04-24;training;2;7;Chocolate cake;Bild66.png;1;77;50;4893,299999999814;100;1711035,900;1712801;2, NA, 7, 7;1712801, 1714064, 1714818, 1715113;Yeah, kind of. I mostly went with what I already know about food. For example, I know that plain roasted chicken doesn’t really have carbs, it's mostly protein. So I just used basic knowledge of what’s in different types of foods, like meats, veggies, and carbs. I didn’t overthink it, just relied on common sense and what I’ve seen on food labels before.;5;yes;no;23;female;yes;;no;
cugzv37dfs82;2025-04-24;training;2;8;Oat flakes;Bild5.png;1;20;60;4919,400000000140;127;1717065,700;1720464;2, 0;1720464, 1721114;Yeah, kind of. I mostly went with what I already know about food. For example, I know that plain roasted chicken doesn’t really have carbs, it's mostly protein. So I just used basic knowledge of what’s in different types of foods, like meats, veggies, and carbs. I didn’t overthink it, just relied on common sense and what I’ve seen on food labels before.;5;yes;no;23;female;yes;;no;
cugzv37dfs82;2025-04-24;training;2;9;Corn;Bild16.png;1;10;11;3037,500000000000;56;1723427,400;1724748;1, 0;1724748, 1725656;Yeah, kind of. I mostly went with what I already know about food. For example, I know that plain roasted chicken doesn’t really have carbs, it's mostly protein. So I just used basic knowledge of what’s in different types of foods, like meats, veggies, and carbs. I didn’t overthink it, just relied on common sense and what I’ve seen on food labels before.;5;yes;no;23;female;yes;;no;
cugzv37dfs82;2025-04-24;training;2;10;Apple turnover;Bild65.png;1;77;34;5267,700000000186;100;1727591,400;1729643;1, NA, 7, 7;1729643, 1731370, 1732091, 1732299;Yeah, kind of. I mostly went with what I already know about food. For example, I know that plain roasted chicken doesn’t really have carbs, it's mostly protein. So I just used basic knowledge of what’s in different types of foods, like meats, veggies, and carbs. I didn’t overthink it, just relied on common sense and what I’ve seen on food labels before.;5;yes;no;23;female;yes;;no;
cugzv37dfs82;2025-04-24;training;2;11;Gummy bears;Bild59.png;1;15;77;2835,699999999953;110;1733887,300;1735250;1, 5;1735250, 1736060;Yeah, kind of. I mostly went with what I already know about food. For example, I know that plain roasted chicken doesn’t really have carbs, it's mostly protein. So I just used basic knowledge of what’s in different types of foods, like meats, veggies, and carbs. I didn’t overthink it, just relied on common sense and what I’ve seen on food labels before.;5;yes;no;23;female;yes;;no;
cugzv37dfs82;2025-04-24;training;3;0;Chickpeas;Bild72.png;1;1;16;16630,599999999627;116;1739101,100;1754401;1;1754401;Yeah, kind of. I mostly went with what I already know about food. For example, I know that plain roasted chicken doesn’t really have carbs, it's mostly protein. So I just used basic knowledge of what’s in different types of foods, like meats, veggies, and carbs. I didn’t overthink it, just relied on common sense and what I’ve seen on food labels before.;5;yes;no;23;female;yes;;no;
cugzv37dfs82;2025-04-24;training;3;1;Chicken;Bild53.png;1;17;2;4083,000000000000;137;1773860,600;1775940;1, 7;1775940, 1776594;Yeah, kind of. I mostly went with what I already know about food. For example, I know that plain roasted chicken doesn’t really have carbs, it's mostly protein. So I just used basic knowledge of what’s in different types of foods, like meats, veggies, and carbs. I didn’t overthink it, just relied on common sense and what I’ve seen on food labels before.;5;yes;no;23;female;yes;;no;
cugzv37dfs82;2025-04-24;training;3;2;Nutella;Bild54.png;1;77;57;3980,199999999953;61;1784886,700;1787299;7, 7;1787299, 1787463;Yeah, kind of. I mostly went with what I already know about food. For example, I know that plain roasted chicken doesn’t really have carbs, it's mostly protein. So I just used basic knowledge of what’s in different types of foods, like meats, veggies, and carbs. I didn’t overthink it, just relied on common sense and what I’ve seen on food labels before.;5;yes;no;23;female;yes;;no;
cugzv37dfs82;2025-04-24;training;3;3;Oat flakes;Bild5.png;1;50;60;4891,799999999814;118;1800559,400;1803748;5, 0;1803748, 1804220;Yeah, kind of. I mostly went with what I already know about food. For example, I know that plain roasted chicken doesn’t really have carbs, it's mostly protein. So I just used basic knowledge of what’s in different types of foods, like meats, veggies, and carbs. I didn’t overthink it, just relied on common sense and what I’ve seen on food labels before.;5;yes;no;23;female;yes;;no;
cugzv37dfs82;2025-04-24;training;3;4;Rice cake;Bild79.png;1;77;77;3325,899999999907;97;1812985,400;1814597;7, 7;1814597, 1814759;Yeah, kind of. I mostly went with what I already know about food. For example, I know that plain roasted chicken doesn’t really have carbs, it's mostly protein. So I just used basic knowledge of what’s in different types of foods, like meats, veggies, and carbs. I didn’t overthink it, just relied on common sense and what I’ve seen on food labels before.;5;yes;no;23;female;yes;;no;
cugzv37dfs82;2025-04-24;training;3;5;Walnuts;Bild70.png;1;16;4;5666,400000000140;94;1824361,200;1827309;1, 6;1827309, 1828076;Yeah, kind of. I mostly went with what I already know about food. For example, I know that plain roasted chicken doesn’t really have carbs, it's mostly protein. So I just used basic knowledge of what’s in different types of foods, like meats, veggies, and carbs. I didn’t overthink it, just relied on common sense and what I’ve seen on food labels before.;5;yes;no;23;female;yes;;no;
cugzv37dfs82;2025-04-24;training;3;6;Mushrooms;Bild22.png;1;1;1;4257,399999999674;114;1842315,800;1845216;1;1845216;Yeah, kind of. I mostly went with what I already know about food. For example, I know that plain roasted chicken doesn’t really have carbs, it's mostly protein. So I just used basic knowledge of what’s in different types of foods, like meats, veggies, and carbs. I didn’t overthink it, just relied on common sense and what I’ve seen on food labels before.;5;yes;no;23;female;yes;;no;
cugzv37dfs82;2025-04-24;training;3;7;Gummy bears;Bild59.png;1;77;77;3225,299999999814;112;1854073,900;1855799;7, 7;1855799, 1855966;Yeah, kind of. I mostly went with what I already know about food. For example, I know that plain roasted chicken doesn’t really have carbs, it's mostly protein. So I just used basic knowledge of what’s in different types of foods, like meats, veggies, and carbs. I didn’t overthink it, just relied on common sense and what I’ve seen on food labels before.;5;yes;no;23;female;yes;;no;
cugzv37dfs82;2025-04-24;training;3;8;Apple turnover;Bild65.png;1;15;34;4028,499999999767;114;1866565,700;1868344;1, 5;1868344, 1869224;Yeah, kind of. I mostly went with what I already know about food. For example, I know that plain roasted chicken doesn’t really have carbs, it's mostly protein. So I just used basic knowledge of what’s in different types of foods, like meats, veggies, and carbs. I didn’t overthink it, just relied on common sense and what I’ve seen on food labels before.;5;yes;no;23;female;yes;;no;
cugzv37dfs82;2025-04-24;training;3;9;Spaghetti;Bild1.png;1;15;28;9492,099999999860;58;1874278,200;1882473;1, 5;1882473, 1882865;Yeah, kind of. I mostly went with what I already know about food. For example, I know that plain roasted chicken doesn’t really have carbs, it's mostly protein. So I just used basic knowledge of what’s in different types of foods, like meats, veggies, and carbs. I didn’t overthink it, just relied on common sense and what I’ve seen on food labels before.;5;yes;no;23;female;yes;;no;
cugzv37dfs82;2025-04-24;training;3;10;Corn;Bild16.png;1;16;11;3587,299999999814;114;1888551,100;1890267;1, 6;1890267, 1890860;Yeah, kind of. I mostly went with what I already know about food. For example, I know that plain roasted chicken doesn’t really have carbs, it's mostly protein. So I just used basic knowledge of what’s in different types of foods, like meats, veggies, and carbs. I didn’t overthink it, just relied on common sense and what I’ve seen on food labels before.;5;yes;no;23;female;yes;;no;
cugzv37dfs82;2025-04-24;training;3;11;Chocolate cake;Bild66.png;1;17;50;3373,100000000093;89;1897095,400;1898504;1, 7;1898504, 1899043;Yeah, kind of. I mostly went with what I already know about food. For example, I know that plain roasted chicken doesn’t really have carbs, it's mostly protein. So I just used basic knowledge of what’s in different types of foods, like meats, veggies, and carbs. I didn’t overthink it, just relied on common sense and what I’ve seen on food labels before.;5;yes;no;23;female;yes;;no;
cugzv37dfs82;2025-04-24;training;4;0;Walnuts;Bild70.png;1;4;4;5699,600000000093;120;1909671,400;1914174;4;1914174;Yeah, kind of. I mostly went with what I already know about food. For example, I know that plain roasted chicken doesn’t really have carbs, it's mostly protein. So I just used basic knowledge of what’s in different types of foods, like meats, veggies, and carbs. I didn’t overthink it, just relied on common sense and what I’ve seen on food labels before.;5;yes;no;23;female;yes;;no;
cugzv37dfs82;2025-04-24;training;4;1;Spaghetti;Bild1.png;1;28;28;6452,399999999907;116;1916700,100;1921481;2, 8;1921481, 1921872;Yeah, kind of. I mostly went with what I already know about food. For example, I know that plain roasted chicken doesn’t really have carbs, it's mostly protein. So I just used basic knowledge of what’s in different types of foods, like meats, veggies, and carbs. I didn’t overthink it, just relied on common sense and what I’ve seen on food labels before.;5;yes;no;23;female;yes;;no;
cugzv37dfs82;2025-04-24;training;4;2;Oat flakes;Bild5.png;1;60;60;6911,099999999860;126;1924310,700;1929119;6, 0;1929119, 1930091;Yeah, kind of. I mostly went with what I already know about food. For example, I know that plain roasted chicken doesn’t really have carbs, it's mostly protein. So I just used basic knowledge of what’s in different types of foods, like meats, veggies, and carbs. I didn’t overthink it, just relied on common sense and what I’ve seen on food labels before.;5;yes;no;23;female;yes;;no;
cugzv37dfs82;2025-04-24;training;4;3;Mushrooms;Bild22.png;1;1;1;4619,899999999907;129;1932322,100;1935519;1;1935519;Yeah, kind of. I mostly went with what I already know about food. For example, I know that plain roasted chicken doesn’t really have carbs, it's mostly protein. So I just used basic knowledge of what’s in different types of foods, like meats, veggies, and carbs. I didn’t overthink it, just relied on common sense and what I’ve seen on food labels before.;5;yes;no;23;female;yes;;no;
cugzv37dfs82;2025-04-24;training;4;4;Chicken;Bild53.png;1;2;2;6370,699999999721;100;1938951,600;1943487;2;1943487;Yeah, kind of. I mostly went with what I already know about food. For example, I know that plain roasted chicken doesn’t really have carbs, it's mostly protein. So I just used basic knowledge of what’s in different types of foods, like meats, veggies, and carbs. I didn’t overthink it, just relied on common sense and what I’ve seen on food labels before.;5;yes;no;23;female;yes;;no;
cugzv37dfs82;2025-04-24;training;4;5;Corn;Bild16.png;1;11;11;7173,299999999814;99;1946712,600;1952526;1, 1;1952526, 1952631;Yeah, kind of. I mostly went with what I already know about food. For example, I know that plain roasted chicken doesn’t really have carbs, it's mostly protein. So I just used basic knowledge of what’s in different types of foods, like meats, veggies, and carbs. I didn’t overthink it, just relied on common sense and what I’ve seen on food labels before.;5;yes;no;23;female;yes;;no;
cugzv37dfs82;2025-04-24;training;4;6;Nutella;Bild54.png;1;57;57;7430,800000000047;111;1955041,300;1960573;5, 7;1960573, 1961090;Yeah, kind of. I mostly went with what I already know about food. For example, I know that plain roasted chicken doesn’t really have carbs, it's mostly protein. So I just used basic knowledge of what’s in different types of foods, like meats, veggies, and carbs. I didn’t overthink it, just relied on common sense and what I’ve seen on food labels before.;5;yes;no;23;female;yes;;no;
cugzv37dfs82;2025-04-24;training;4;7;Apple turnover;Bild65.png;1;34;34;6343,300000000047;126;1963868,800;1968449;3, 4;1968449, 1968669;Yeah, kind of. I mostly went with what I already know about food. For example, I know that plain roasted chicken doesn’t really have carbs, it's mostly protein. So I just used basic knowledge of what’s in different types of foods, like meats, veggies, and carbs. I didn’t overthink it, just relied on common sense and what I’ve seen on food labels before.;5;yes;no;23;female;yes;;no;
cugzv37dfs82;2025-04-24;training;4;8;Chickpeas;Bild72.png;1;16;16;4987,800000000047;110;1971079,800;1974521;1, 6;1974521, 1974902;Yeah, kind of. I mostly went with what I already know about food. For example, I know that plain roasted chicken doesn’t really have carbs, it's mostly protein. So I just used basic knowledge of what’s in different types of foods, like meats, veggies, and carbs. I didn’t overthink it, just relied on common sense and what I’ve seen on food labels before.;5;yes;no;23;female;yes;;no;
cugzv37dfs82;2025-04-24;training;4;9;Chocolate cake;Bild66.png;1;50;50;7088,399999999674;95;1978692,300;1984294;5, 0;1984294, 1984671;Yeah, kind of. I mostly went with what I already know about food. For example, I know that plain roasted chicken doesn’t really have carbs, it's mostly protein. So I just used basic knowledge of what’s in different types of foods, like meats, veggies, and carbs. I didn’t overthink it, just relied on common sense and what I’ve seen on food labels before.;5;yes;no;23;female;yes;;no;
cugzv37dfs82;2025-04-24;training;4;10;Gummy bears;Bild59.png;1;77;77;4571,100000000093;91;1986869,500;1989959;7, 7;1989959, 1990183;Yeah, kind of. I mostly went with what I already know about food. For example, I know that plain roasted chicken doesn’t really have carbs, it's mostly protein. So I just used basic knowledge of what’s in different types of foods, like meats, veggies, and carbs. I didn’t overthink it, just relied on common sense and what I’ve seen on food labels before.;5;yes;no;23;female;yes;;no;
cugzv37dfs82;2025-04-24;training;4;11;Rice cake;Bild79.png;1;77;77;5556,600000000093;93;1992915,500;1996552;7, 7;1996552, 1996712;Yeah, kind of. I mostly went with what I already know about food. For example, I know that plain roasted chicken doesn’t really have carbs, it's mostly protein. So I just used basic knowledge of what’s in different types of foods, like meats, veggies, and carbs. I didn’t overthink it, just relied on common sense and what I’ve seen on food labels before.;5;yes;no;23;female;yes;;no;
cugzv37dfs82;2025-04-24;training;5;0;Mushrooms;Bild22.png;1;1;1;18289,799999999814;83;2000444,600;2017575;1;2017575;Yeah, kind of. I mostly went with what I already know about food. For example, I know that plain roasted chicken doesn’t really have carbs, it's mostly protein. So I just used basic knowledge of what’s in different types of foods, like meats, veggies, and carbs. I didn’t overthink it, just relied on common sense and what I’ve seen on food labels before.;5;yes;no;23;female;yes;;no;
cugzv37dfs82;2025-04-24;training;5;1;Chocolate cake;Bild66.png;1;50;50;6035,300000000279;81;2019798,000;2024297;5, 0;2024297, 2024671;Yeah, kind of. I mostly went with what I already know about food. For example, I know that plain roasted chicken doesn’t really have carbs, it's mostly protein. So I just used basic knowledge of what’s in different types of foods, like meats, veggies, and carbs. I didn’t overthink it, just relied on common sense and what I’ve seen on food labels before.;5;yes;no;23;female;yes;;no;
cugzv37dfs82;2025-04-24;training;5;2;Spaghetti;Bild1.png;1;28;28;9143,700000000186;105;2027442,400;2034568;2, 8;2034568, 2035013;Yeah, kind of. I mostly went with what I already know about food. For example, I know that plain roasted chicken doesn’t really have carbs, it's mostly protein. So I just used basic knowledge of what’s in different types of foods, like meats, veggies, and carbs. I didn’t overthink it, just relied on common sense and what I’ve seen on food labels before.;5;yes;no;23;female;yes;;no;
cugzv37dfs82;2025-04-24;training;5;3;Walnuts;Bild70.png;1;4;4;7735,399999999907;116;2037736,500;2044232;4;2044232;Yeah, kind of. I mostly went with what I already know about food. For example, I know that plain roasted chicken doesn’t really have carbs, it's mostly protein. So I just used basic knowledge of what’s in different types of foods, like meats, veggies, and carbs. I didn’t overthink it, just relied on common sense and what I’ve seen on food labels before.;5;yes;no;23;female;yes;;no;
cugzv37dfs82;2025-04-24;training;5;4;Rice cake;Bild79.png;1;77;77;3791,099999999627;112;2046430,400;2048502;7, 7;2048502, 2048662;Yeah, kind of. I mostly went with what I already know about food. For example, I know that plain roasted chicken doesn’t really have carbs, it's mostly protein. So I just used basic knowledge of what’s in different types of foods, like meats, veggies, and carbs. I didn’t overthink it, just relied on common sense and what I’ve seen on food labels before.;5;yes;no;23;female;yes;;no;
cugzv37dfs82;2025-04-24;training;5;5;Gummy bears;Bild59.png;1;77;77;3727,099999999860;122;2051393,300;2054061;7, 7;2054061, 2054218;Yeah, kind of. I mostly went with what I already know about food. For example, I know that plain roasted chicken doesn’t really have carbs, it's mostly protein. So I just used basic knowledge of what’s in different types of foods, like meats, veggies, and carbs. I didn’t overthink it, just relied on common sense and what I’ve seen on food labels before.;5;yes;no;23;female;yes;;no;
cugzv37dfs82;2025-04-24;training;5;6;Corn;Bild16.png;1;11;11;5550,300000000047;72;2055957,800;2059833;1, 1;2059833, 2060024;Yeah, kind of. I mostly went with what I already know about food. For example, I know that plain roasted chicken doesn’t really have carbs, it's mostly protein. So I just used basic knowledge of what’s in different types of foods, like meats, veggies, and carbs. I didn’t overthink it, just relied on common sense and what I’ve seen on food labels before.;5;yes;no;23;female;yes;;no;
cugzv37dfs82;2025-04-24;training;5;7;Oat flakes;Bild5.png;1;60;60;11606,900000000373;122;2063035,400;2073345;6, 0;2073345, 2073677;Yeah, kind of. I mostly went with what I already know about food. For example, I know that plain roasted chicken doesn’t really have carbs, it's mostly protein. So I just used basic knowledge of what’s in different types of foods, like meats, veggies, and carbs. I didn’t overthink it, just relied on common sense and what I’ve seen on food labels before.;5;yes;no;23;female;yes;;no;
cugzv37dfs82;2025-04-24;training;5;8;Nutella;Bild54.png;1;57;57;4761,299999999814;126;2075510,600;2078669;5, 7;2078669, 2079050;Yeah, kind of. I mostly went with what I already know about food. For example, I know that plain roasted chicken doesn’t really have carbs, it's mostly protein. So I just used basic knowledge of what’s in different types of foods, like meats, veggies, and carbs. I didn’t overthink it, just relied on common sense and what I’ve seen on food labels before.;5;yes;no;23;female;yes;;no;
cugzv37dfs82;2025-04-24;training;5;9;Apple turnover;Bild65.png;1;34;34;4900,499999999534;119;2082273,000;2084663;3, 4;2084663, 2085307;Yeah, kind of. I mostly went with what I already know about food. For example, I know that plain roasted chicken doesn’t really have carbs, it's mostly protein. So I just used basic knowledge of what’s in different types of foods, like meats, veggies, and carbs. I didn’t overthink it, just relied on common sense and what I’ve seen on food labels before.;5;yes;no;23;female;yes;;no;
cugzv37dfs82;2025-04-24;training;5;10;Chickpeas;Bild72.png;1;16;16;6705,500000000233;101;2088268,800;2093343;1, 6;2093343, 2093770;Yeah, kind of. I mostly went with what I already know about food. For example, I know that plain roasted chicken doesn’t really have carbs, it's mostly protein. So I just used basic knowledge of what’s in different types of foods, like meats, veggies, and carbs. I didn’t overthink it, just relied on common sense and what I’ve seen on food labels before.;5;yes;no;23;female;yes;;no;
cugzv37dfs82;2025-04-24;training;5;11;Chicken;Bild53.png;1;2;2;11351,899999999674;106;2096146,800;2105830;2;2105830;Yeah, kind of. I mostly went with what I already know about food. For example, I know that plain roasted chicken doesn’t really have carbs, it's mostly protein. So I just used basic knowledge of what’s in different types of foods, like meats, veggies, and carbs. I didn’t overthink it, just relied on common sense and what I’ve seen on food labels before.;5;yes;no;23;female;yes;;no;
cugzv37dfs82;2025-04-24;testing;NA;0;Cream cheese;Bild45.png;0;5;3;11592,500000000000;114;2137219,900;2146496;5;2146496;Yeah, kind of. I mostly went with what I already know about food. For example, I know that plain roasted chicken doesn’t really have carbs, it's mostly protein. So I just used basic knowledge of what’s in different types of foods, like meats, veggies, and carbs. I didn’t overthink it, just relied on common sense and what I’ve seen on food labels before.;5;yes;no;23;female;yes;;no;
cugzv37dfs82;2025-04-24;testing;NA;1;Fish sticks;Bild74.png;0;6;18;5376,699999999721;85;2148829,500;2152822;6;2152822;Yeah, kind of. I mostly went with what I already know about food. For example, I know that plain roasted chicken doesn’t really have carbs, it's mostly protein. So I just used basic knowledge of what’s in different types of foods, like meats, veggies, and carbs. I didn’t overthink it, just relied on common sense and what I’ve seen on food labels before.;5;yes;no;23;female;yes;;no;
cugzv37dfs82;2025-04-24;testing;NA;2;Chicken;Bild53.png;1;2;2;7928,700000000186;118;2154225,600;2159526;2;2159526;Yeah, kind of. I mostly went with what I already know about food. For example, I know that plain roasted chicken doesn’t really have carbs, it's mostly protein. So I just used basic knowledge of what’s in different types of foods, like meats, veggies, and carbs. I didn’t overthink it, just relied on common sense and what I’ve seen on food labels before.;5;yes;no;23;female;yes;;no;
cugzv37dfs82;2025-04-24;testing;NA;3;Orange;Bild30.png;0;1;8;3544,199999999721;107;2162154,000;2164588;1;2164588;Yeah, kind of. I mostly went with what I already know about food. For example, I know that plain roasted chicken doesn’t really have carbs, it's mostly protein. So I just used basic knowledge of what’s in different types of foods, like meats, veggies, and carbs. I didn’t overthink it, just relied on common sense and what I’ve seen on food labels before.;5;yes;no;23;female;yes;;no;
cugzv37dfs82;2025-04-24;testing;NA;4;Vegetarian salami;Bild75.png;0;5;9;3701,899999999441;93;2165717,600;2168036;5;2168036;Yeah, kind of. I mostly went with what I already know about food. For example, I know that plain roasted chicken doesn’t really have carbs, it's mostly protein. So I just used basic knowledge of what’s in different types of foods, like meats, veggies, and carbs. I didn’t overthink it, just relied on common sense and what I’ve seen on food labels before.;5;yes;no;23;female;yes;;no;
cugzv37dfs82;2025-04-24;testing;NA;5;Apple turnover;Bild65.png;1;34;34;5570,100000000093;70;2169449,200;2173695;3, 4;2173695, 2173911;Yeah, kind of. I mostly went with what I already know about food. For example, I know that plain roasted chicken doesn’t really have carbs, it's mostly protein. So I just used basic knowledge of what’s in different types of foods, like meats, veggies, and carbs. I didn’t overthink it, just relied on common sense and what I’ve seen on food labels before.;5;yes;no;23;female;yes;;no;
cugzv37dfs82;2025-04-24;testing;NA;6;French fries;Bild76.png;0;6;24;3532,000000000000;105;2175045,600;2176828;6;2176828;Yeah, kind of. I mostly went with what I already know about food. For example, I know that plain roasted chicken doesn’t really have carbs, it's mostly protein. So I just used basic knowledge of what’s in different types of foods, like meats, veggies, and carbs. I didn’t overthink it, just relied on common sense and what I’ve seen on food labels before.;5;yes;no;23;female;yes;;no;
cugzv37dfs82;2025-04-24;testing;NA;7;Apple;Bild27.png;0;1;14;3466,200000000186;112;2178592,100;2180801;1;2180801;Yeah, kind of. I mostly went with what I already know about food. For example, I know that plain roasted chicken doesn’t really have carbs, it's mostly protein. So I just used basic knowledge of what’s in different types of foods, like meats, veggies, and carbs. I didn’t overthink it, just relied on common sense and what I’ve seen on food labels before.;5;yes;no;23;female;yes;;no;
cugzv37dfs82;2025-04-24;testing;NA;8;Couscous;Bild6.png;0;6;29;3445,300000000279;96;2182073,300;2184326;6;2184326;Yeah, kind of. I mostly went with what I already know about food. For example, I know that plain roasted chicken doesn’t really have carbs, it's mostly protein. So I just used basic knowledge of what’s in different types of foods, like meats, veggies, and carbs. I didn’t overthink it, just relied on common sense and what I’ve seen on food labels before.;5;yes;no;23;female;yes;;no;
cugzv37dfs82;2025-04-24;testing;NA;9;Fried egg;Bild17.png;0;21;2;6280,500000000000;105;2185538,400;2190257;2, 1;2190257, 2190500;Yeah, kind of. I mostly went with what I already know about food. For example, I know that plain roasted chicken doesn’t really have carbs, it's mostly protein. So I just used basic knowledge of what’s in different types of foods, like meats, veggies, and carbs. I didn’t overthink it, just relied on common sense and what I’ve seen on food labels before.;5;yes;no;23;female;yes;;no;
cugzv37dfs82;2025-04-24;testing;NA;10;Pork;Bild52.png;0;32;0;5063,699999999721;88;2191834,300;2195423;3, 2;2195423, 2195691;Yeah, kind of. I mostly went with what I already know about food. For example, I know that plain roasted chicken doesn’t really have carbs, it's mostly protein. So I just used basic knowledge of what’s in different types of foods, like meats, veggies, and carbs. I didn’t overthink it, just relied on common sense and what I’ve seen on food labels before.;5;yes;no;23;female;yes;;no;
cugzv37dfs82;2025-04-24;testing;NA;11;Walnuts;Bild70.png;1;4;4;5976,399999999441;103;2196913,600;2201862;4;2201862;Yeah, kind of. I mostly went with what I already know about food. For example, I know that plain roasted chicken doesn’t really have carbs, it's mostly protein. So I just used basic knowledge of what’s in different types of foods, like meats, veggies, and carbs. I didn’t overthink it, just relied on common sense and what I’ve seen on food labels before.;5;yes;no;23;female;yes;;no;
cugzv37dfs82;2025-04-24;testing;NA;12;Rice cake;Bild79.png;1;77;77;9058,400000000373;107;2202909,400;2209765;7, 7;2209765, 2209914;Yeah, kind of. I mostly went with what I already know about food. For example, I know that plain roasted chicken doesn’t really have carbs, it's mostly protein. So I just used basic knowledge of what’s in different types of foods, like meats, veggies, and carbs. I didn’t overthink it, just relied on common sense and what I’ve seen on food labels before.;5;yes;no;23;female;yes;;no;
cugzv37dfs82;2025-04-24;testing;NA;13;Whipped cream;Bild71.png;0;5;3;3632,599999999627;126;2211987,600;2214296;5;2214296;Yeah, kind of. I mostly went with what I already know about food. For example, I know that plain roasted chicken doesn’t really have carbs, it's mostly protein. So I just used basic knowledge of what’s in different types of foods, like meats, veggies, and carbs. I didn’t overthink it, just relied on common sense and what I’ve seen on food labels before.;5;yes;no;23;female;yes;;no;
cugzv37dfs82;2025-04-24;testing;NA;14;Wrap;Bild11.png;0;13;52;4885,499999999534;116;2215634,200;2217576;1, 3;2217576, 2219221;Yeah, kind of. I mostly went with what I already know about food. For example, I know that plain roasted chicken doesn’t really have carbs, it's mostly protein. So I just used basic knowledge of what’s in different types of foods, like meats, veggies, and carbs. I didn’t overthink it, just relied on common sense and what I’ve seen on food labels before.;5;yes;no;23;female;yes;;no;
cugzv37dfs82;2025-04-24;testing;NA;15;Basketball;AC.png;0;0;999;4492,899999999907;111;2220547,700;2222455;0;2222455;Yeah, kind of. I mostly went with what I already know about food. For example, I know that plain roasted chicken doesn’t really have carbs, it's mostly protein. So I just used basic knowledge of what’s in different types of foods, like meats, veggies, and carbs. I didn’t overthink it, just relied on common sense and what I’ve seen on food labels before.;5;yes;no;23;female;yes;;no;
cugzv37dfs82;2025-04-24;testing;NA;16;Tomatoes;Bild19.png;0;6;3;3621,300000000279;87;2225062,300;2227359;6;2227359;Yeah, kind of. I mostly went with what I already know about food. For example, I know that plain roasted chicken doesn’t really have carbs, it's mostly protein. So I just used basic knowledge of what’s in different types of foods, like meats, veggies, and carbs. I didn’t overthink it, just relied on common sense and what I’ve seen on food labels before.;5;yes;no;23;female;yes;;no;
cugzv37dfs82;2025-04-24;testing;NA;17;Bread;Bild7.png;0;12;43;3743,000000000466;99;2228708,800;2230861;1, 2;2230861, 2231114;Yeah, kind of. I mostly went with what I already know about food. For example, I know that plain roasted chicken doesn’t really have carbs, it's mostly protein. So I just used basic knowledge of what’s in different types of foods, like meats, veggies, and carbs. I didn’t overthink it, just relied on common sense and what I’ve seen on food labels before.;5;yes;no;23;female;yes;;no;
cugzv37dfs82;2025-04-24;testing;NA;18;Yogurt;Bild39.png;0;1;6;6141,100000000093;89;2232473,200;2235317;1;2235317;Yeah, kind of. I mostly went with what I already know about food. For example, I know that plain roasted chicken doesn’t really have carbs, it's mostly protein. So I just used basic knowledge of what’s in different types of foods, like meats, veggies, and carbs. I didn’t overthink it, just relied on common sense and what I’ve seen on food labels before.;5;yes;no;23;female;yes;;no;
cugzv37dfs82;2025-04-24;testing;NA;19;Watermelon;Bild28.png;0;0;8;3766,299999999814;127;2238636,600;2241282;0;2241282;Yeah, kind of. I mostly went with what I already know about food. For example, I know that plain roasted chicken doesn’t really have carbs, it's mostly protein. So I just used basic knowledge of what’s in different types of foods, like meats, veggies, and carbs. I didn’t overthink it, just relied on common sense and what I’ve seen on food labels before.;5;yes;no;23;female;yes;;no;
cugzv37dfs82;2025-04-24;testing;NA;20;Kinder chocolate bar;Bild77.png;0;12;54;3165,899999999907;102;2242417,500;2244143;1, 2;2244143, 2244422;Yeah, kind of. I mostly went with what I already know about food. For example, I know that plain roasted chicken doesn’t really have carbs, it's mostly protein. So I just used basic knowledge of what’s in different types of foods, like meats, veggies, and carbs. I didn’t overthink it, just relied on common sense and what I’ve seen on food labels before.;5;yes;no;23;female;yes;;no;
cugzv37dfs82;2025-04-24;testing;NA;21;Rice;Bild2.png;0;12;28;6213,100000000093;103;2245598,000;2248109;4, NA, 1, 2;2248109, 2249366, 2250126, 2250681;Yeah, kind of. I mostly went with what I already know about food. For example, I know that plain roasted chicken doesn’t really have carbs, it's mostly protein. So I just used basic knowledge of what’s in different types of foods, like meats, veggies, and carbs. I didn’t overthink it, just relied on common sense and what I’ve seen on food labels before.;5;yes;no;23;female;yes;;no;
cugzv37dfs82;2025-04-24;testing;NA;22;Peanut butter;Bild58.png;0;21;17;3805,700000000186;114;2251827,900;2253678;2, 1;2253678, 2254031;Yeah, kind of. I mostly went with what I already know about food. For example, I know that plain roasted chicken doesn’t really have carbs, it's mostly protein. So I just used basic knowledge of what’s in different types of foods, like meats, veggies, and carbs. I didn’t overthink it, just relied on common sense and what I’ve seen on food labels before.;5;yes;no;23;female;yes;;no;
cugzv37dfs82;2025-04-24;testing;NA;23;Beans;Bild25.png;0;12;3;3979,800000000279;104;2255658,500;2257968;1, 2;2257968, 2258245;Yeah, kind of. I mostly went with what I already know about food. For example, I know that plain roasted chicken doesn’t really have carbs, it's mostly protein. So I just used basic knowledge of what’s in different types of foods, like meats, veggies, and carbs. I didn’t overthink it, just relied on common sense and what I’ve seen on food labels before.;5;yes;no;23;female;yes;;no;
cugzv37dfs82;2025-04-24;testing;NA;24;Mozzarella;Bild44.png;0;0;1;3145,999999999534;103;2259655,700;2260913;0;2260913;Yeah, kind of. I mostly went with what I already know about food. For example, I know that plain roasted chicken doesn’t really have carbs, it's mostly protein. So I just used basic knowledge of what’s in different types of foods, like meats, veggies, and carbs. I didn’t overthink it, just relied on common sense and what I’ve seen on food labels before.;5;yes;no;23;female;yes;;no;
cugzv37dfs82;2025-04-24;testing;NA;25;Rigatoni;Bild3.png;0;12;34;4664,842000000179;107;2262804,258;2266036;1, 2;2266036, 2266281;Yeah, kind of. I mostly went with what I already know about food. For example, I know that plain roasted chicken doesn’t really have carbs, it's mostly protein. So I just used basic knowledge of what’s in different types of foods, like meats, veggies, and carbs. I didn’t overthink it, just relied on common sense and what I’ve seen on food labels before.;5;yes;no;23;female;yes;;no;
cugzv37dfs82;2025-04-24;testing;NA;26;Shrimps;Bild50.png;0;12;3;5114,399999999907;81;2267483,300;2270502;1, 2;2270502, 2270765;Yeah, kind of. I mostly went with what I already know about food. For example, I know that plain roasted chicken doesn’t really have carbs, it's mostly protein. So I just used basic knowledge of what’s in different types of foods, like meats, veggies, and carbs. I didn’t overthink it, just relied on common sense and what I’ve seen on food labels before.;5;yes;no;23;female;yes;;no;
cugzv37dfs82;2025-04-24;testing;NA;27;Chips;Bild63.png;0;12;51;3888,674000000115;100;2272597,626;2274678;1, 2;2274678, 2275002;Yeah, kind of. I mostly went with what I already know about food. For example, I know that plain roasted chicken doesn’t really have carbs, it's mostly protein. So I just used basic knowledge of what’s in different types of foods, like meats, veggies, and carbs. I didn’t overthink it, just relied on common sense and what I’ve seen on food labels before.;5;yes;no;23;female;yes;;no;
cugzv37dfs82;2025-04-24;testing;NA;28;Chocolate cake;Bild66.png;1;50;50;5758,799999999348;117;2276494,700;2280569;5, 0;2280569, 2280996;Yeah, kind of. I mostly went with what I already know about food. For example, I know that plain roasted chicken doesn’t really have carbs, it's mostly protein. So I just used basic knowledge of what’s in different types of foods, like meats, veggies, and carbs. I didn’t overthink it, just relied on common sense and what I’ve seen on food labels before.;5;yes;no;23;female;yes;;no;
cugzv37dfs82;2025-04-24;testing;NA;29;Carrots;Bild15.png;0;12;7;6639,700000000186;102;2282273,400;2287276;1, 2;2287276, 2287555;Yeah, kind of. I mostly went with what I already know about food. For example, I know that plain roasted chicken doesn’t really have carbs, it's mostly protein. So I just used basic knowledge of what’s in different types of foods, like meats, veggies, and carbs. I didn’t overthink it, just relied on common sense and what I’ve seen on food labels before.;5;yes;no;23;female;yes;;no;
cugzv37dfs82;2025-04-24;testing;NA;30;Cookies;Bild68.png;0;20;58;4014,599999999627;125;2288936,600;2291304;2, 0;2291304, 2291769;Yeah, kind of. I mostly went with what I already know about food. For example, I know that plain roasted chicken doesn’t really have carbs, it's mostly protein. So I just used basic knowledge of what’s in different types of foods, like meats, veggies, and carbs. I didn’t overthink it, just relied on common sense and what I’ve seen on food labels before.;5;yes;no;23;female;yes;;no;
cugzv37dfs82;2025-04-24;testing;NA;31;Grapes;Bild38.png;0;10;15;6838,000000000000;113;2292966,600;2297739;1, 0;2297739, 2298437;Yeah, kind of. I mostly went with what I already know about food. For example, I know that plain roasted chicken doesn’t really have carbs, it's mostly protein. So I just used basic knowledge of what’s in different types of foods, like meats, veggies, and carbs. I didn’t overthink it, just relied on common sense and what I’ve seen on food labels before.;5;yes;no;23;female;yes;;no;
cugzv37dfs82;2025-04-24;testing;NA;32;Gouda cheese;Bild41.png;0;10;0;6059,900000000373;121;2299829,400;2302400;2, NA, 1, 0;2302400, 2303487, 2304020, 2304544;Yeah, kind of. I mostly went with what I already know about food. For example, I know that plain roasted chicken doesn’t really have carbs, it's mostly protein. So I just used basic knowledge of what’s in different types of foods, like meats, veggies, and carbs. I didn’t overthink it, just relied on common sense and what I’ve seen on food labels before.;5;yes;no;23;female;yes;;no;
cugzv37dfs82;2025-04-24;testing;NA;33;Chickpeas;Bild72.png;1;16;16;7243,400000000373;137;2305907,900;2311327;1, 6;2311327, 2311703;Yeah, kind of. I mostly went with what I already know about food. For example, I know that plain roasted chicken doesn’t really have carbs, it's mostly protein. So I just used basic knowledge of what’s in different types of foods, like meats, veggies, and carbs. I didn’t overthink it, just relied on common sense and what I’ve seen on food labels before.;5;yes;no;23;female;yes;;no;
cugzv37dfs82;2025-04-24;testing;NA;34;Nutella;Bild54.png;1;57;57;5585,671999999788;113;2313154,028;2316942;5, 7;2316942, 2317436;Yeah, kind of. I mostly went with what I already know about food. For example, I know that plain roasted chicken doesn’t really have carbs, it's mostly protein. So I just used basic knowledge of what’s in different types of foods, like meats, veggies, and carbs. I didn’t overthink it, just relied on common sense and what I’ve seen on food labels before.;5;yes;no;23;female;yes;;no;
cugzv37dfs82;2025-04-24;testing;NA;35;Cucumber;Bild13.png;0;0;2;3407,399999999907;83;2318766,800;2321009;0;2321009;Yeah, kind of. I mostly went with what I already know about food. For example, I know that plain roasted chicken doesn’t really have carbs, it's mostly protein. So I just used basic knowledge of what’s in different types of foods, like meats, veggies, and carbs. I didn’t overthink it, just relied on common sense and what I’ve seen on food labels before.;5;yes;no;23;female;yes;;no;
cugzv37dfs82;2025-04-24;testing;NA;36;Broccoli;Bild18.png;0;3;2;6124,900000000373;121;2322180,900;2325104;1, NA, 3;2325104, 2326129, 2326845;Yeah, kind of. I mostly went with what I already know about food. For example, I know that plain roasted chicken doesn’t really have carbs, it's mostly protein. So I just used basic knowledge of what’s in different types of foods, like meats, veggies, and carbs. I didn’t overthink it, just relied on common sense and what I’ve seen on food labels before.;5;yes;no;23;female;yes;;no;
cugzv37dfs82;2025-04-24;testing;NA;37;Radishes;Bild73.png;0;2;2;2943,899999999907;101;2328326,300;2330122;2;2330122;Yeah, kind of. I mostly went with what I already know about food. For example, I know that plain roasted chicken doesn’t really have carbs, it's mostly protein. So I just used basic knowledge of what’s in different types of foods, like meats, veggies, and carbs. I didn’t overthink it, just relied on common sense and what I’ve seen on food labels before.;5;yes;no;23;female;yes;;no;
cugzv37dfs82;2025-04-24;testing;NA;38;Croissant;Bild8.png;0;10;47;3892,500000000000;61;2331291,900;2333511;1, 0;2333511, 2334010;Yeah, kind of. I mostly went with what I already know about food. For example, I know that plain roasted chicken doesn’t really have carbs, it's mostly protein. So I just used basic knowledge of what’s in different types of foods, like meats, veggies, and carbs. I didn’t overthink it, just relied on common sense and what I’ve seen on food labels before.;5;yes;no;23;female;yes;;no;
cugzv37dfs82;2025-04-24;testing;NA;39;Salami;Bild46.png;0;10;1;6190,399999999907;135;2335206,000;2337338;3, NA, 1, 0;2337338, 2339132, 2339681, 2340101;Yeah, kind of. I mostly went with what I already know about food. For example, I know that plain roasted chicken doesn’t really have carbs, it's mostly protein. So I just used basic knowledge of what’s in different types of foods, like meats, veggies, and carbs. I didn’t overthink it, just relied on common sense and what I’ve seen on food labels before.;5;yes;no;23;female;yes;;no;
cugzv37dfs82;2025-04-24;testing;NA;40;Vanilla pudding;Bild62.png;0;12;14;4089,699999999721;100;2341417,800;2343631;1, 2;2343631, 2344119;Yeah, kind of. I mostly went with what I already know about food. For example, I know that plain roasted chicken doesn’t really have carbs, it's mostly protein. So I just used basic knowledge of what’s in different types of foods, like meats, veggies, and carbs. I didn’t overthink it, just relied on common sense and what I’ve seen on food labels before.;5;yes;no;23;female;yes;;no;
cugzv37dfs82;2025-04-24;testing;NA;41;Mandarin;Bild31.png;0;3;10;3675,699999999721;99;2345515,500;2347778;3;2347778;Yeah, kind of. I mostly went with what I already know about food. For example, I know that plain roasted chicken doesn’t really have carbs, it's mostly protein. So I just used basic knowledge of what’s in different types of foods, like meats, veggies, and carbs. I didn’t overthink it, just relied on common sense and what I’ve seen on food labels before.;5;yes;no;23;female;yes;;no;
cugzv37dfs82;2025-04-24;testing;NA;42;Curd cheese;Bild40.png;0;10;4;5759,599999999627;131;2349212,600;2353067;1, 0;2353067, 2353800;Yeah, kind of. I mostly went with what I already know about food. For example, I know that plain roasted chicken doesn’t really have carbs, it's mostly protein. So I just used basic knowledge of what’s in different types of foods, like meats, veggies, and carbs. I didn’t overthink it, just relied on common sense and what I’ve seen on food labels before.;5;yes;no;23;female;yes;;no;
cugzv37dfs82;2025-04-24;testing;NA;43;Basketball;AC.png;0;0;999;4532,800000000279;110;2354992,000;2356666;0;2356666;Yeah, kind of. I mostly went with what I already know about food. For example, I know that plain roasted chicken doesn’t really have carbs, it's mostly protein. So I just used basic knowledge of what’s in different types of foods, like meats, veggies, and carbs. I didn’t overthink it, just relied on common sense and what I’ve seen on food labels before.;5;yes;no;23;female;yes;;no;
cugzv37dfs82;2025-04-24;testing;NA;44;Raspberry jam;Bild56.png;0;4;52;4458,600000000093;122;2359539,800;2362460;4;2362460;Yeah, kind of. I mostly went with what I already know about food. For example, I know that plain roasted chicken doesn’t really have carbs, it's mostly protein. So I just used basic knowledge of what’s in different types of foods, like meats, veggies, and carbs. I didn’t overthink it, just relied on common sense and what I’ve seen on food labels before.;5;yes;no;23;female;yes;;no;
cugzv37dfs82;2025-04-24;testing;NA;45;Apricot;Bild37.png;0;12;9;4797,099999999627;68;2364020,100;2365841;0, NA, 1, 2;2365841, 2366745, 2367290, 2367534;Yeah, kind of. I mostly went with what I already know about food. For example, I know that plain roasted chicken doesn’t really have carbs, it's mostly protein. So I just used basic knowledge of what’s in different types of foods, like meats, veggies, and carbs. I didn’t overthink it, just relied on common sense and what I’ve seen on food labels before.;5;yes;no;23;female;yes;;no;
cugzv37dfs82;2025-04-24;testing;NA;46;Mango;Bild32.png;0;0;13;11605,999999999534;89;2368833,700;2379333;0;2379333;Yeah, kind of. I mostly went with what I already know about food. For example, I know that plain roasted chicken doesn’t really have carbs, it's mostly protein. So I just used basic knowledge of what’s in different types of foods, like meats, veggies, and carbs. I didn’t overthink it, just relied on common sense and what I’ve seen on food labels before.;5;yes;no;23;female;yes;;no;
cugzv37dfs82;2025-04-24;testing;NA;47;Peas;Bild23.png;0;16;9;12448,299999999814;96;2380458,400;2390811;1, 6;2390811, 2391418;Yeah, kind of. I mostly went with what I already know about food. For example, I know that plain roasted chicken doesn’t really have carbs, it's mostly protein. So I just used basic knowledge of what’s in different types of foods, like meats, veggies, and carbs. I didn’t overthink it, just relied on common sense and what I’ve seen on food labels before.;5;yes;no;23;female;yes;;no;
cugzv37dfs82;2025-04-24;testing;NA;48;Pretzel sticks;Bild64.png;0;6;72;3761,699999999721;90;2392917,700;2395403;6;2395403;Yeah, kind of. I mostly went with what I already know about food. For example, I know that plain roasted chicken doesn’t really have carbs, it's mostly protein. So I just used basic knowledge of what’s in different types of foods, like meats, veggies, and carbs. I didn’t overthink it, just relied on common sense and what I’ve seen on food labels before.;5;yes;no;23;female;yes;;no;
cugzv37dfs82;2025-04-24;testing;NA;49;Iceberg lettuce;Bild20.png;0;10;2;4280,799999999814;101;2396698,100;2399021;1, 0;2399021, 2399541;Yeah, kind of. I mostly went with what I already know about food. For example, I know that plain roasted chicken doesn’t really have carbs, it's mostly protein. So I just used basic knowledge of what’s in different types of foods, like meats, veggies, and carbs. I didn’t overthink it, just relied on common sense and what I’ve seen on food labels before.;5;yes;no;23;female;yes;;no;
cugzv37dfs82;2025-04-24;testing;NA;50;Corn;Bild16.png;1;11;11;5888,799999999814;125;2400994,600;2405470;1, 1;2405470, 2405635;Yeah, kind of. I mostly went with what I already know about food. For example, I know that plain roasted chicken doesn’t really have carbs, it's mostly protein. So I just used basic knowledge of what’s in different types of foods, like meats, veggies, and carbs. I didn’t overthink it, just relied on common sense and what I’ve seen on food labels before.;5;yes;no;23;female;yes;;no;
cugzv37dfs82;2025-04-24;testing;NA;51;Peanuts;Bild69.png;0;12;11;3781,600000000093;91;2406908,500;2409312;1, 2;2409312, 2409567;Yeah, kind of. I mostly went with what I already know about food. For example, I know that plain roasted chicken doesn’t really have carbs, it's mostly protein. So I just used basic knowledge of what’s in different types of foods, like meats, veggies, and carbs. I didn’t overthink it, just relied on common sense and what I’ve seen on food labels before.;5;yes;no;23;female;yes;;no;
cugzv37dfs82;2025-04-24;testing;NA;52;Raspberry;Bild35.png;0;12;5;2903,999999999534;114;2410706,000;2412197;1, 2;2412197, 2412427;Yeah, kind of. I mostly went with what I already know about food. For example, I know that plain roasted chicken doesn’t really have carbs, it's mostly protein. So I just used basic knowledge of what’s in different types of foods, like meats, veggies, and carbs. I didn’t overthink it, just relied on common sense and what I’ve seen on food labels before.;5;yes;no;23;female;yes;;no;
cugzv37dfs82;2025-04-24;testing;NA;53;Lentils;Bild24.png;0;10;25;3380,200000000186;181;2413637,100;2415449;1, 0;2415449, 2415973;Yeah, kind of. I mostly went with what I already know about food. For example, I know that plain roasted chicken doesn’t really have carbs, it's mostly protein. So I just used basic knowledge of what’s in different types of foods, like meats, veggies, and carbs. I didn’t overthink it, just relied on common sense and what I’ve seen on food labels before.;5;yes;no;23;female;yes;;no;
cugzv37dfs82;2025-04-24;testing;NA;54;Tuna (canned);Bild49.png;0;18;0;3710,699999999721;86;2417034,700;2418550;1, 8;2418550, 2419460;Yeah, kind of. I mostly went with what I already know about food. For example, I know that plain roasted chicken doesn’t really have carbs, it's mostly protein. So I just used basic knowledge of what’s in different types of foods, like meats, veggies, and carbs. I didn’t overthink it, just relied on common sense and what I’ve seen on food labels before.;5;yes;no;23;female;yes;;no;
cugzv37dfs82;2025-04-24;testing;NA;55;Chocolate;Bild61.png;0;50;55;4120,100000000093;107;2420765,200;2423144;5, 0;2423144, 2423541;Yeah, kind of. I mostly went with what I already know about food. For example, I know that plain roasted chicken doesn’t really have carbs, it's mostly protein. So I just used basic knowledge of what’s in different types of foods, like meats, veggies, and carbs. I didn’t overthink it, just relied on common sense and what I’ve seen on food labels before.;5;yes;no;23;female;yes;;no;
cugzv37dfs82;2025-04-24;testing;NA;56;Oat flakes;Bild5.png;1;60;60;27930,099999999627;98;2424912,100;2451459;6, 0;2451459, 2451764;Yeah, kind of. I mostly went with what I already know about food. For example, I know that plain roasted chicken doesn’t really have carbs, it's mostly protein. So I just used basic knowledge of what’s in different types of foods, like meats, veggies, and carbs. I didn’t overthink it, just relied on common sense and what I’ve seen on food labels before.;5;yes;no;23;female;yes;;no;
cugzv37dfs82;2025-04-24;testing;NA;57;Mushrooms;Bild22.png;1;1;1;6755,100000000093;106;2452861,000;2458286;1;2458286;Yeah, kind of. I mostly went with what I already know about food. For example, I know that plain roasted chicken doesn’t really have carbs, it's mostly protein. So I just used basic knowledge of what’s in different types of foods, like meats, veggies, and carbs. I didn’t overthink it, just relied on common sense and what I’ve seen on food labels before.;5;yes;no;23;female;yes;;no;
cugzv37dfs82;2025-04-24;testing;NA;58;Bell pepper;Bild14.png;0;0;6;4718,800000000279;100;2459623,000;2461564;0, NA, 0;2461564, 2462323, 2462842;Yeah, kind of. I mostly went with what I already know about food. For example, I know that plain roasted chicken doesn’t really have carbs, it's mostly protein. So I just used basic knowledge of what’s in different types of foods, like meats, veggies, and carbs. I didn’t overthink it, just relied on common sense and what I’ve seen on food labels before.;5;yes;no;23;female;yes;;no;
cugzv37dfs82;2025-04-24;testing;NA;59;White toast;Bild9.png;0;12;47;8667,499999999534;145;2464353,700;2466744;1, 2;2466744, 2471314;Yeah, kind of. I mostly went with what I already know about food. For example, I know that plain roasted chicken doesn’t really have carbs, it's mostly protein. So I just used basic knowledge of what’s in different types of foods, like meats, veggies, and carbs. I didn’t overthink it, just relied on common sense and what I’ve seen on food labels before.;5;yes;no;23;female;yes;;no;
cugzv37dfs82;2025-04-24;testing;NA;60;Bulgur;Bild10.png;0;20;24;28488,699999999721;97;2473047,800;2499612;2, 0;2499612, 2500431;Yeah, kind of. I mostly went with what I already know about food. For example, I know that plain roasted chicken doesn’t really have carbs, it's mostly protein. So I just used basic knowledge of what’s in different types of foods, like meats, veggies, and carbs. I didn’t overthink it, just relied on common sense and what I’ve seen on food labels before.;5;yes;no;23;female;yes;;no;
cugzv37dfs82;2025-04-24;testing;NA;61;Dried ham;Bild47.png;0;12;1;4725,000000000000;104;2501562,400;2504684;1, 2;2504684, 2504926;Yeah, kind of. I mostly went with what I already know about food. For example, I know that plain roasted chicken doesn’t really have carbs, it's mostly protein. So I just used basic knowledge of what’s in different types of foods, like meats, veggies, and carbs. I didn’t overthink it, just relied on common sense and what I’ve seen on food labels before.;5;yes;no;23;female;yes;;no;
cugzv37dfs82;2025-04-24;testing;NA;62;Honey;Bild57.png;0;0;81;2739,199999999721;95;2506309,200;2507642;0;2507642;Yeah, kind of. I mostly went with what I already know about food. For example, I know that plain roasted chicken doesn’t really have carbs, it's mostly protein. So I just used basic knowledge of what’s in different types of foods, like meats, veggies, and carbs. I didn’t overthink it, just relied on common sense and what I’ve seen on food labels before.;5;yes;no;23;female;yes;;no;
cugzv37dfs82;2025-04-24;testing;NA;63;Eggplant;Bild78.png;0;5;3;3198,700000000186;124;2509073,100;2511126;5;2511126;Yeah, kind of. I mostly went with what I already know about food. For example, I know that plain roasted chicken doesn’t really have carbs, it's mostly protein. So I just used basic knowledge of what’s in different types of foods, like meats, veggies, and carbs. I didn’t overthink it, just relied on common sense and what I’ve seen on food labels before.;5;yes;no;23;female;yes;;no;
cugzv37dfs82;2025-04-24;testing;NA;64;Potatoes;Bild12.png;0;12;19;3455,200000000186;115;2512287,600;2514303;1, 2;2514303, 2514570;Yeah, kind of. I mostly went with what I already know about food. For example, I know that plain roasted chicken doesn’t really have carbs, it's mostly protein. So I just used basic knowledge of what’s in different types of foods, like meats, veggies, and carbs. I didn’t overthink it, just relied on common sense and what I’ve seen on food labels before.;5;yes;no;23;female;yes;;no;
cugzv37dfs82;2025-04-24;testing;NA;65;Butter;Bild42.png;0;2;1;3405,599999999627;99;2515768,900;2517789;2;2517789;Yeah, kind of. I mostly went with what I already know about food. For example, I know that plain roasted chicken doesn’t really have carbs, it's mostly protein. So I just used basic knowledge of what’s in different types of foods, like meats, veggies, and carbs. I didn’t overthink it, just relied on common sense and what I’ve seen on food labels before.;5;yes;no;23;female;yes;;no;
cugzv37dfs82;2025-04-24;testing;NA;66;Kidney beans;Bild29.png;0;10;13;3194,599999999627;103;2519200,600;2520719;1, 0;2520719, 2521300;Yeah, kind of. I mostly went with what I already know about food. For example, I know that plain roasted chicken doesn’t really have carbs, it's mostly protein. So I just used basic knowledge of what’s in different types of foods, like meats, veggies, and carbs. I didn’t overthink it, just relied on common sense and what I’ve seen on food labels before.;5;yes;no;23;female;yes;;no;
cugzv37dfs82;2025-04-24;testing;NA;67;Salmon;Bild51.png;0;12;0;3460,399999999907;103;2522414,300;2524237;1, 2;2524237, 2524468;Yeah, kind of. I mostly went with what I already know about food. For example, I know that plain roasted chicken doesn’t really have carbs, it's mostly protein. So I just used basic knowledge of what’s in different types of foods, like meats, veggies, and carbs. I didn’t overthink it, just relied on common sense and what I’ve seen on food labels before.;5;yes;no;23;female;yes;;no;
cugzv37dfs82;2025-04-24;testing;NA;68;Ice cream;Bild60.png;0;77;19;4583,299999999814;108;2525895,400;2527395;1, NA, 7, 7;2527395, 2528177, 2528843, 2529037;Yeah, kind of. I mostly went with what I already know about food. For example, I know that plain roasted chicken doesn’t really have carbs, it's mostly protein. So I just used basic knowledge of what’s in different types of foods, like meats, veggies, and carbs. I didn’t overthink it, just relied on common sense and what I’ve seen on food labels before.;5;yes;no;23;female;yes;;no;
cugzv37dfs82;2025-04-24;testing;NA;69;Cheesecake;Bild67.png;0;50;33;3349,699999999721;121;2530492,500;2532399;5, 0;2532399, 2532743;Yeah, kind of. I mostly went with what I already know about food. For example, I know that plain roasted chicken doesn’t really have carbs, it's mostly protein. So I just used basic knowledge of what’s in different types of foods, like meats, veggies, and carbs. I didn’t overthink it, just relied on common sense and what I’ve seen on food labels before.;5;yes;no;23;female;yes;;no;
cugzv37dfs82;2025-04-24;testing;NA;70;Cherry jam;Bild55.png;0;10;55;12850,200000000186;133;2533857,600;2544872;1, 0;2544872, 2545350;Yeah, kind of. I mostly went with what I already know about food. For example, I know that plain roasted chicken doesn’t really have carbs, it's mostly protein. So I just used basic knowledge of what’s in different types of foods, like meats, veggies, and carbs. I didn’t overthink it, just relied on common sense and what I’ve seen on food labels before.;5;yes;no;23;female;yes;;no;
cugzv37dfs82;2025-04-24;testing;NA;71;Pineapple;Bild33.png;0;3;12;5569,599999999627;95;2546732,400;2551005;3;2551005;Yeah, kind of. I mostly went with what I already know about food. For example, I know that plain roasted chicken doesn’t really have carbs, it's mostly protein. So I just used basic knowledge of what’s in different types of foods, like meats, veggies, and carbs. I didn’t overthink it, just relied on common sense and what I’ve seen on food labels before.;5;yes;no;23;female;yes;;no;
cugzv37dfs82;2025-04-24;testing;NA;72;Dextrose;Bild80.png;0;10;91;3953,399999999907;115;2552327,800;2554678;1, 0;2554678, 2555074;Yeah, kind of. I mostly went with what I already know about food. For example, I know that plain roasted chicken doesn’t really have carbs, it's mostly protein. So I just used basic knowledge of what’s in different types of foods, like meats, veggies, and carbs. I didn’t overthink it, just relied on common sense and what I’ve seen on food labels before.;5;yes;no;23;female;yes;;no;
cugzv37dfs82;2025-04-24;testing;NA;73;Feta;Bild43.png;0;5;1;3411,400000000373;115;2556308,400;2558203;5;2558203;Yeah, kind of. I mostly went with what I already know about food. For example, I know that plain roasted chicken doesn’t really have carbs, it's mostly protein. So I just used basic knowledge of what’s in different types of foods, like meats, veggies, and carbs. I didn’t overthink it, just relied on common sense and what I’ve seen on food labels before.;5;yes;no;23;female;yes;;no;
cugzv37dfs82;2025-04-24;testing;NA;74;Cauliflower;Bild21.png;0;10;2;3654,599999999627;89;2559739,600;2561756;1, 0;2561756, 2562231;Yeah, kind of. I mostly went with what I already know about food. For example, I know that plain roasted chicken doesn’t really have carbs, it's mostly protein. So I just used basic knowledge of what’s in different types of foods, like meats, veggies, and carbs. I didn’t overthink it, just relied on common sense and what I’ve seen on food labels before.;5;yes;no;23;female;yes;;no;
cugzv37dfs82;2025-04-24;testing;NA;75;Spaghetti;Bild1.png;1;28;28;4951,099999999627;116;2563421,100;2566447;2, 8;2566447, 2567114;Yeah, kind of. I mostly went with what I already know about food. For example, I know that plain roasted chicken doesn’t really have carbs, it's mostly protein. So I just used basic knowledge of what’s in different types of foods, like meats, veggies, and carbs. I didn’t overthink it, just relied on common sense and what I’ve seen on food labels before.;5;yes;no;23;female;yes;;no;
cugzv37dfs82;2025-04-24;testing;NA;76;Strawberry;Bild34.png;0;11;6;3199,399999999907;109;2568401,300;2570264;1, 1;2570264, 2570450;Yeah, kind of. I mostly went with what I already know about food. For example, I know that plain roasted chicken doesn’t really have carbs, it's mostly protein. So I just used basic knowledge of what’s in different types of foods, like meats, veggies, and carbs. I didn’t overthink it, just relied on common sense and what I’ve seen on food labels before.;5;yes;no;23;female;yes;;no;
cugzv37dfs82;2025-04-24;testing;NA;77;Vienna sausages;Bild48.png;0;12;1;3443,199999999721;120;2571615,200;2573274;1, 2;2573274, 2573490;Yeah, kind of. I mostly went with what I already know about food. For example, I know that plain roasted chicken doesn’t really have carbs, it's mostly protein. So I just used basic knowledge of what’s in different types of foods, like meats, veggies, and carbs. I didn’t overthink it, just relied on common sense and what I’ve seen on food labels before.;5;yes;no;23;female;yes;;no;
cugzv37dfs82;2025-04-24;testing;NA;78;Bread roll;Bild4.png;0;10;44;3349,699999999721;107;2575079,200;2576887;1, 0;2576887, 2577420;Yeah, kind of. I mostly went with what I already know about food. For example, I know that plain roasted chicken doesn’t really have carbs, it's mostly protein. So I just used basic knowledge of what’s in different types of foods, like meats, veggies, and carbs. I didn’t overthink it, just relied on common sense and what I’ve seen on food labels before.;5;yes;no;23;female;yes;;no;
cugzv37dfs82;2025-04-24;testing;NA;79;Pear;Bild36.png;0;2;12;3630,799999999348;92;2578444,700;2580917;2;2580917;Yeah, kind of. I mostly went with what I already know about food. For example, I know that plain roasted chicken doesn’t really have carbs, it's mostly protein. So I just used basic knowledge of what’s in different types of foods, like meats, veggies, and carbs. I didn’t overthink it, just relied on common sense and what I’ve seen on food labels before.;5;yes;no;23;female;yes;;no;
cugzv37dfs82;2025-04-24;testing;NA;80;Banana;Bild26.png;0;2;20;2874,399999999907;51;2582092,300;2583725;2;2583725;Yeah, kind of. I mostly went with what I already know about food. For example, I know that plain roasted chicken doesn’t really have carbs, it's mostly protein. So I just used basic knowledge of what’s in different types of foods, like meats, veggies, and carbs. I didn’t overthink it, just relied on common sense and what I’ve seen on food labels before.;5;yes;no;23;female;yes;;no;
cugzv37dfs82;2025-04-24;testing;NA;81;Gummy bears;Bild59.png;1;77;77;8758,600000000093;83;2584990,200;2592435;7, 7;2592435, 2592584;Yeah, kind of. I mostly went with what I already know about food. For example, I know that plain roasted chicken doesn’t really have carbs, it's mostly protein. So I just used basic knowledge of what’s in different types of foods, like meats, veggies, and carbs. I didn’t overthink it, just relied on common sense and what I’ve seen on food labels before.;5;yes;no;23;female;yes;;no;
cugzv37dfs82;2025-04-24;testing;NA;82;Basketball;AC.png;0;0;999;3170,600000000093;112;2593767,200;2595890;0;2595890;Yeah, kind of. I mostly went with what I already know about food. For example, I know that plain roasted chicken doesn’t really have carbs, it's mostly protein. So I just used basic knowledge of what’s in different types of foods, like meats, veggies, and carbs. I didn’t overthink it, just relied on common sense and what I’ve seen on food labels before.;5;yes;no;23;female;yes;;no;
qza2yw7qkddd;2025-04-24;training;1;0;Apple turnover;Bild65.png;1;10;34;32372,099999952305;154;284922,700;299240;2, 0, NA, NA, 1, 0;299240, 299755, 314042, 314204, 314925, 315392;Just the knowledge I have about those foods contents.;5;yes;no;32;female;yes;;no;
qza2yw7qkddd;2025-04-24;training;1;1;Chickpeas;Bild72.png;1;50;16;53967,399999904621;86;326632,200;333038;2, NA, 5, NA, 5, 0;333038, 334535, 334971, 371388, 378357, 378774;Just the knowledge I have about those foods contents.;5;yes;no;32;female;yes;;no;
qza2yw7qkddd;2025-04-24;training;1;2;Mushrooms;Bild22.png;1;20;1;8702,799999904644;148;392927,800;399376;2, 0;399376, 399853;Just the knowledge I have about those foods contents.;5;yes;no;32;female;yes;;no;
qza2yw7qkddd;2025-04-24;training;1;3;Nutella;Bild54.png;1;70;57;7539,900000047695;140;406353,300;411620;7, 0;411620, 411916;Just the knowledge I have about those foods contents.;5;yes;no;32;female;yes;;no;
qza2yw7qkddd;2025-04-24;training;1;4;Spaghetti;Bild1.png;1;80;28;4477,700000000012;84;416922,300;419209;8, 0;419209, 419449;Just the knowledge I have about those foods contents.;5;yes;no;32;female;yes;;no;
qza2yw7qkddd;2025-04-24;training;1;5;Chicken;Bild53.png;1;7;2;6151,800000047660;103;428673,900;432904;7;432904;Just the knowledge I have about those foods contents.;5;yes;no;32;female;yes;;no;
qza2yw7qkddd;2025-04-24;training;1;6;Rice cake;Bild79.png;1;80;77;5685,200000000012;123;438126,800;442138;8, 0;442138, 442450;Just the knowledge I have about those foods contents.;5;yes;no;32;female;yes;;no;
qza2yw7qkddd;2025-04-24;training;1;7;Chocolate cake;Bild66.png;1;90;50;8717,799999952316;87;446938,500;449506;9, 0;449506, 449691;Just the knowledge I have about those foods contents.;5;yes;no;32;female;yes;;no;
qza2yw7qkddd;2025-04-24;training;1;8;Oat flakes;Bild5.png;1;6;60;5684,300000095391;91;461988,100;465757;6;465757;Just the knowledge I have about those foods contents.;5;yes;no;32;female;yes;;no;
qza2yw7qkddd;2025-04-24;training;1;9;Gummy bears;Bild59.png;1;77;77;7961,900000095367;86;474772,500;478176;8, 0, NA, NA, 7, 7;478176, 478421, 479545, 479687, 480303, 480449;Just the knowledge I have about those foods contents.;5;yes;no;32;female;yes;;no;
qza2yw7qkddd;2025-04-24;training;1;10;Walnuts;Bild70.png;1;35;4;7967,400000000023;85;488198,100;492956;3, 5;492956, 493359;Just the knowledge I have about those foods contents.;5;yes;no;32;female;yes;;no;
qza2yw7qkddd;2025-04-24;training;1;11;Corn;Bild16.png;1;90;11;7022,100000047707;72;500716,100;506229;9, 0;506229, 506439;Just the knowledge I have about those foods contents.;5;yes;no;32;female;yes;;no;
qza2yw7qkddd;2025-04-24;training;2;0;Nutella;Bild54.png;1;34;57;21420,400000047695;114;511318,300;530976;3, 4;530976, 531176;Just the knowledge I have about those foods contents.;5;yes;no;32;female;yes;;no;
qza2yw7qkddd;2025-04-24;training;2;1;Rice cake;Bild79.png;1;77;77;27471,999999952270;129;535196,300;560036;7, 7;560036, 560183;Just the knowledge I have about those foods contents.;5;yes;no;32;female;yes;;no;
qza2yw7qkddd;2025-04-24;training;2;2;Walnuts;Bild70.png;1;15;4;31702,699999952340;83;565354,100;591473;1, 5;591473, 593330;Just the knowledge I have about those foods contents.;5;yes;no;32;female;yes;;no;
qza2yw7qkddd;2025-04-24;training;2;3;Apple turnover;Bild65.png;1;56;34;9366,499999904656;114;599701,100;607111;5, 6;607111, 607406;Just the knowledge I have about those foods contents.;5;yes;no;32;female;yes;;no;
qza2yw7qkddd;2025-04-24;training;2;4;Oat flakes;Bild5.png;1;57;60;5149,599999999977;97;611202,900;614779;5, 7;614779, 615094;Just the knowledge I have about those foods contents.;5;yes;no;32;female;yes;;no;
qza2yw7qkddd;2025-04-24;training;2;5;Spaghetti;Bild1.png;1;34;28;4176,599999904633;130;618215,500;620814;3, 4;620814, 621067;Just the knowledge I have about those foods contents.;5;yes;no;32;female;yes;;no;
qza2yw7qkddd;2025-04-24;training;2;6;Corn;Bild16.png;1;65;11;3998,900000000023;104;624095,600;626428;6, 5;626428, 627056;Just the knowledge I have about those foods contents.;5;yes;no;32;female;yes;;no;
qza2yw7qkddd;2025-04-24;training;2;7;Gummy bears;Bild59.png;1;77;77;3292,199999904609;111;629783,900;631571;7, 7;631571, 632078;Just the knowledge I have about those foods contents.;5;yes;no;32;female;yes;;no;
qza2yw7qkddd;2025-04-24;training;2;8;Chickpeas;Bild72.png;1;16;16;8446,000000047730;95;634806,200;640363;1, 6;640363, 642087;Just the knowledge I have about those foods contents.;5;yes;no;32;female;yes;;no;
qza2yw7qkddd;2025-04-24;training;2;9;Mushrooms;Bild22.png;1;1;1;3864,900000095367;102;645067,000;647991;1;647991;Just the knowledge I have about those foods contents.;5;yes;no;32;female;yes;;no;
qza2yw7qkddd;2025-04-24;training;2;10;Chicken;Bild53.png;1;1;2;7974,599999904633;147;650713,500;655717;1;655717;Just the knowledge I have about those foods contents.;5;yes;no;32;female;yes;;no;
qza2yw7qkddd;2025-04-24;training;2;11;Chocolate cake;Bild66.png;1;34;50;3464,800000095391;82;660433,100;662196;3, 4;662196, 662478;Just the knowledge I have about those foods contents.;5;yes;no;32;female;yes;;no;
qza2yw7qkddd;2025-04-24;training;3;0;Walnuts;Bild70.png;1;45;4;9345,100000095321;90;666471,300;674239;4, 5;674239, 674514;Just the knowledge I have about those foods contents.;5;yes;no;32;female;yes;;no;
qza2yw7qkddd;2025-04-24;training;3;1;Chocolate cake;Bild66.png;1;50;50;7260,299999904586;119;677673,300;678728;NA, 5, 0, NA, NA, NA, NA, NA, 5, 0;678728, 679532, 680070, 681502, 681642, 681783, 681909, 682404, 682971, 683508;Just the knowledge I have about those foods contents.;5;yes;no;32;female;yes;;no;
qza2yw7qkddd;2025-04-24;training;3;2;Corn;Bild16.png;1;5;11;40608,899999904679;98;687850,700;726553;5;726553;Just the knowledge I have about those foods contents.;5;yes;no;32;female;yes;;no;
qza2yw7qkddd;2025-04-24;training;3;3;Apple turnover;Bild65.png;1;57;34;7484,000000047730;184;733524,700;738046;5, 7;738046, 738329;Just the knowledge I have about those foods contents.;5;yes;no;32;female;yes;;no;
qza2yw7qkddd;2025-04-24;training;3;4;Chicken;Bild53.png;1;2;2;4234,399999952293;129;749790,400;752214;2;752214;Just the knowledge I have about those foods contents.;5;yes;no;32;female;yes;;no;
qza2yw7qkddd;2025-04-24;training;3;5;Oat flakes;Bild5.png;1;50;60;11070,700000095414;169;756378,200;763258;5, 0;763258, 764196;Just the knowledge I have about those foods contents.;5;yes;no;32;female;yes;;no;
qza2yw7qkddd;2025-04-24;training;3;6;Nutella;Bild54.png;1;11;57;6001,399999904679;64;772144,200;776092;1, 1;776092, 776286;Just the knowledge I have about those foods contents.;5;yes;no;32;female;yes;;no;
qza2yw7qkddd;2025-04-24;training;3;7;Spaghetti;Bild1.png;1;49;28;4242,099999904633;72;785661,500;787908;4, 9;787908, 788471;Just the knowledge I have about those foods contents.;5;yes;no;32;female;yes;;no;
qza2yw7qkddd;2025-04-24;training;3;8;Mushrooms;Bild22.png;1;1;1;3557,300000095391;128;797413,100;799619;1;799619;Just the knowledge I have about those foods contents.;5;yes;no;32;female;yes;;no;
qza2yw7qkddd;2025-04-24;training;3;9;Rice cake;Bild79.png;1;34;77;8718,799999952316;128;802810,000;810011;3, 4;810011, 810235;Just the knowledge I have about those foods contents.;5;yes;no;32;female;yes;;no;
qza2yw7qkddd;2025-04-24;training;3;10;Chickpeas;Bild72.png;1;67;16;7932,200000047684;67;817335,000;823790;6, 7;823790, 824035;Just the knowledge I have about those foods contents.;5;yes;no;32;female;yes;;no;
qza2yw7qkddd;2025-04-24;training;3;11;Gummy bears;Bild59.png;1;77;77;3885,299999952316;112;833875,500;836049;7, 7;836049, 836228;Just the knowledge I have about those foods contents.;5;yes;no;32;female;yes;;no;
qza2yw7qkddd;2025-04-24;training;4;0;Gummy bears;Bild59.png;1;77;77;5423,799999952316;114;840705,000;843048;7, 7;843048, 843224;Just the knowledge I have about those foods contents.;5;yes;no;32;female;yes;;no;
qza2yw7qkddd;2025-04-24;training;4;1;Walnuts;Bild70.png;1;16;4;7626,900000000023;92;848209,100;852592;1, 6;852592, 853019;Just the knowledge I have about those foods contents.;5;yes;no;32;female;yes;;no;
qza2yw7qkddd;2025-04-24;training;4;2;Mushrooms;Bild22.png;1;1;1;3365,600000047707;65;865232,600;867668;1;867668;Just the knowledge I have about those foods contents.;5;yes;no;32;female;yes;;no;
qza2yw7qkddd;2025-04-24;training;4;3;Spaghetti;Bild1.png;1;28;28;9543,399999904679;94;870163,200;874531;2, 8;874531, 875280;Just the knowledge I have about those foods contents.;5;yes;no;32;female;yes;;no;
qza2yw7qkddd;2025-04-24;training;4;4;Chocolate cake;Bild66.png;1;50;50;6846,599999952363;156;881281,700;883726;5, 0;883726, 884256;Just the knowledge I have about those foods contents.;5;yes;no;32;female;yes;;no;
qza2yw7qkddd;2025-04-24;training;4;5;Oat flakes;Bild5.png;1;60;60;5779,400000000023;55;889702,100;894136;6, 0;894136, 894480;Just the knowledge I have about those foods contents.;5;yes;no;32;female;yes;;no;
qza2yw7qkddd;2025-04-24;training;4;6;Chicken;Bild53.png;1;2;2;4348,700000095414;136;897705,700;899658;2;899658;Just the knowledge I have about those foods contents.;5;yes;no;32;female;yes;;no;
qza2yw7qkddd;2025-04-24;training;4;7;Corn;Bild16.png;1;11;11;4460,199999952340;98;903760,600;907081;1, 1;907081, 907236;Just the knowledge I have about those foods contents.;5;yes;no;32;female;yes;;no;
qza2yw7qkddd;2025-04-24;training;4;8;Apple turnover;Bild65.png;1;34;34;11473,100000047707;88;909790,600;919442;3, 4;919442, 919534;Just the knowledge I have about those foods contents.;5;yes;no;32;female;yes;;no;
qza2yw7qkddd;2025-04-24;training;4;9;Rice cake;Bild79.png;1;77;77;4412,599999999977;87;923082,900;926391;7, 7;926391, 926572;Just the knowledge I have about those foods contents.;5;yes;no;32;female;yes;;no;
qza2yw7qkddd;2025-04-24;training;4;10;Chickpeas;Bild72.png;1;16;16;5094,600000047707;105;933785,100;937241;1, 6;937241, 937788;Just the knowledge I have about those foods contents.;5;yes;no;32;female;yes;;no;
qza2yw7qkddd;2025-04-24;training;4;11;Nutella;Bild54.png;1;57;57;5877,699999952340;144;940364,600;944766;5, 7;944766, 945182;Just the knowledge I have about those foods contents.;5;yes;no;32;female;yes;;no;
qza2yw7qkddd;2025-04-24;training;5;0;Oat flakes;Bild5.png;1;60;60;5484,199999999953;113;949201,300;953421;6, 0;953421, 953815;Just the knowledge I have about those foods contents.;5;yes;no;32;female;yes;;no;
qza2yw7qkddd;2025-04-24;training;5;1;Corn;Bild16.png;1;11;11;6247,200000047684;112;956455,500;960578;1, 1;960578, 960786;Just the knowledge I have about those foods contents.;5;yes;no;32;female;yes;;no;
qza2yw7qkddd;2025-04-24;training;5;2;Mushrooms;Bild22.png;1;1;1;2802,199999904609;74;964184,400;966018;1;966018;Just the knowledge I have about those foods contents.;5;yes;no;32;female;yes;;no;
qza2yw7qkddd;2025-04-24;training;5;3;Walnuts;Bild70.png;1;4;4;5700,899999904679;121;968590,200;972870;4;972870;Just the knowledge I have about those foods contents.;5;yes;no;32;female;yes;;no;
qza2yw7qkddd;2025-04-24;training;5;4;Nutella;Bild54.png;1;57;57;4458,199999904609;25;976302,900;979422;5, 7;979422, 979754;Just the knowledge I have about those foods contents.;5;yes;no;32;female;yes;;no;
qza2yw7qkddd;2025-04-24;training;5;5;Gummy bears;Bild59.png;1;77;77;2621,199999999953;78;982482,300;984036;7, 7;984036, 984218;Just the knowledge I have about those foods contents.;5;yes;no;32;female;yes;;no;
qza2yw7qkddd;2025-04-24;training;5;6;Apple turnover;Bild65.png;1;34;34;7110,500000047730;106;986563,200;992491;3, 4;992491, 992736;Just the knowledge I have about those foods contents.;5;yes;no;32;female;yes;;no;
qza2yw7qkddd;2025-04-24;training;5;7;Chocolate cake;Bild66.png;1;50;50;3079,600000095321;129;995208,300;996636;5, 0;996636, 997032;Just the knowledge I have about those foods contents.;5;yes;no;32;female;yes;;no;
qza2yw7qkddd;2025-04-24;training;5;8;Spaghetti;Bild1.png;1;28;28;5248,600000095321;122;999747,300;1003454;2, 8;1003454, 1003951;Just the knowledge I have about those foods contents.;5;yes;no;32;female;yes;;no;
qza2yw7qkddd;2025-04-24;training;5;9;Rice cake;Bild79.png;1;77;77;4602,099999952363;96;1006493,700;1009989;7, 7;1009989, 1010163;Just the knowledge I have about those foods contents.;5;yes;no;32;female;yes;;no;
qza2yw7qkddd;2025-04-24;training;5;10;Chicken;Bild53.png;1;2;2;2661,199999904609;81;1012789,900;1014233;2;1014233;Just the knowledge I have about those foods contents.;5;yes;no;32;female;yes;;no;
qza2yw7qkddd;2025-04-24;training;5;11;Chickpeas;Bild72.png;1;16;16;5043,500000000000;81;1016937,500;1019897;1, 6;1019897, 1020840;Just the knowledge I have about those foods contents.;5;yes;no;32;female;yes;;no;
qza2yw7qkddd;2025-04-24;testing;NA;0;Cookies;Bild68.png;0;46;58;4518,099999952363;116;1174047,700;1177068;4, 6;1177068, 1177543;Just the knowledge I have about those foods contents.;5;yes;no;32;female;yes;;no;
qza2yw7qkddd;2025-04-24;testing;NA;1;Basketball;AC.png;0;999;999;6153,499999904539;111;1178578,600;1182913;9, 9, 9;1182913, 1183103, 1183245;Just the knowledge I have about those foods contents.;5;yes;no;32;female;yes;;no;
qza2yw7qkddd;2025-04-24;testing;NA;2;Potatoes;Bild12.png;0;90;19;3760,800000095274;74;1184741,600;1187161;9, 0;1187161, 1187416;Just the knowledge I have about those foods contents.;5;yes;no;32;female;yes;;no;
qza2yw7qkddd;2025-04-24;testing;NA;3;Dextrose;Bild80.png;0;56;91;4619,500000000000;97;1188514,500;1191824;5, 6;1191824, 1192059;Just the knowledge I have about those foods contents.;5;yes;no;32;female;yes;;no;
qza2yw7qkddd;2025-04-24;testing;NA;4;Chicken;Bild53.png;1;2;2;2903,100000047591;81;1193145,100;1195066;2;1195066;Just the knowledge I have about those foods contents.;5;yes;no;32;female;yes;;no;
qza2yw7qkddd;2025-04-24;testing;NA;5;Basketball;AC.png;0;999;999;4244,799999904586;103;1196051,800;1197912;9, 9, 9;1197912, 1198286, 1198503;Just the knowledge I have about those foods contents.;5;yes;no;32;female;yes;;no;
qza2yw7qkddd;2025-04-24;testing;NA;6;Gummy bears;Bild59.png;1;77;77;3246,600000000093;111;1200299,400;1202534;7, 7;1202534, 1202695;Just the knowledge I have about those foods contents.;5;yes;no;32;female;yes;;no;
qza2yw7qkddd;2025-04-24;testing;NA;7;Chickpeas;Bild72.png;1;16;16;6027,799999904586;101;1203555,800;1207446;1, 6;1207446, 1208668;Just the knowledge I have about those foods contents.;5;yes;no;32;female;yes;;no;
qza2yw7qkddd;2025-04-24;testing;NA;8;Dried ham;Bild47.png;0;4;1;3535,300000095274;80;1209594,100;1212120;4;1212120;Just the knowledge I have about those foods contents.;5;yes;no;32;female;yes;;no;
qza2yw7qkddd;2025-04-24;testing;NA;9;Croissant;Bild8.png;0;80;47;8968,700000047684;93;1213142,000;1215320;8, 0;1215320, 1215606;Just the knowledge I have about those foods contents.;5;yes;no;32;female;yes;;no;
qza2yw7qkddd;2025-04-24;testing;NA;10;Apricot;Bild37.png;0;45;9;3664,143999952357;104;1222112,156;1224563;4, 5;1224563, 1224798;Just the knowledge I have about those foods contents.;5;yes;no;32;female;yes;;no;
qza2yw7qkddd;2025-04-24;testing;NA;11;Eggplant;Bild78.png;0;4;3;8099,199999999953;98;1225784,800;1228504;4, 5, NA;1228504, 1228727, 1232344;Just the knowledge I have about those foods contents.;5;yes;no;32;female;yes;;no;
qza2yw7qkddd;2025-04-24;testing;NA;12;Rice cake;Bild79.png;1;77;77;3770,199999999953;81;1233896,800;1236480;7, 7;1236480, 1236681;Just the knowledge I have about those foods contents.;5;yes;no;32;female;yes;;no;
qza2yw7qkddd;2025-04-24;testing;NA;13;Salmon;Bild51.png;0;1;0;4368,200000095414;81;1237669,700;1241046;1;1241046;Just the knowledge I have about those foods contents.;5;yes;no;32;female;yes;;no;
qza2yw7qkddd;2025-04-24;testing;NA;14;Chips;Bild63.png;0;77;51;3668,400000095367;95;1242050,500;1243962;7, 7;1243962, 1244182;Just the knowledge I have about those foods contents.;5;yes;no;32;female;yes;;no;
qza2yw7qkddd;2025-04-24;testing;NA;15;Cucumber;Bild13.png;0;3;2;3310,600000000093;98;1245723,400;1248019;3;1248019;Just the knowledge I have about those foods contents.;5;yes;no;32;female;yes;;no;
qza2yw7qkddd;2025-04-24;testing;NA;16;Corn;Bild16.png;1;11;11;4320,099999952363;95;1249038,200;1252316;1, 1;1252316, 1252532;Just the knowledge I have about those foods contents.;5;yes;no;32;female;yes;;no;
qza2yw7qkddd;2025-04-24;testing;NA;17;Pork;Bild52.png;0;34;0;5410,869999904651;89;1253360,730;1257644;3, 4;1257644, 1257939;Just the knowledge I have about those foods contents.;5;yes;no;32;female;yes;;no;
qza2yw7qkddd;2025-04-24;testing;NA;18;Chocolate cake;Bild66.png;1;50;50;2969,347999999998;72;1258774,652;1260311;5, 0;1260311, 1260717;Just the knowledge I have about those foods contents.;5;yes;no;32;female;yes;;no;
qza2yw7qkddd;2025-04-24;testing;NA;19;Tuna (canned);Bild49.png;0;4;0;3078,270000000019;106;1261747,730;1263839;4;1263839;Just the knowledge I have about those foods contents.;5;yes;no;32;female;yes;;no;
qza2yw7qkddd;2025-04-24;testing;NA;20;Mozzarella;Bild44.png;0;65;1;6047,000000000000;75;1264837,500;1267729;6, 5;1267729, 1268285;Just the knowledge I have about those foods contents.;5;yes;no;32;female;yes;;no;
qza2yw7qkddd;2025-04-24;testing;NA;21;Strawberry;Bild34.png;0;1;6;3867,099999952363;103;1270893,700;1273281;1;1273281;Just the knowledge I have about those foods contents.;5;yes;no;32;female;yes;;no;
qza2yw7qkddd;2025-04-24;testing;NA;22;Mango;Bild32.png;0;23;13;2786,600000047591;122;1274765,100;1276349;2, 3;1276349, 1276574;Just the knowledge I have about those foods contents.;5;yes;no;32;female;yes;;no;
qza2yw7qkddd;2025-04-24;testing;NA;23;Oat flakes;Bild5.png;1;60;60;4760,700000047684;96;1277563,500;1280924;6, 0;1280924, 1281320;Just the knowledge I have about those foods contents.;5;yes;no;32;female;yes;;no;
qza2yw7qkddd;2025-04-24;testing;NA;24;Lentils;Bild24.png;0;34;25;2969,299999952316;97;1282327,500;1284169;3, 4;1284169, 1284401;Just the knowledge I have about those foods contents.;5;yes;no;32;female;yes;;no;
qza2yw7qkddd;2025-04-24;testing;NA;25;Cherry jam;Bild55.png;0;23;55;3099,299999904586;106;1285300,800;1287200;2, 3;1287200, 1287410;Just the knowledge I have about those foods contents.;5;yes;no;32;female;yes;;no;
qza2yw7qkddd;2025-04-24;testing;NA;26;Peanuts;Bild69.png;0;56;11;3888,600000095321;112;1288407,300;1291064;5, 6;1291064, 1291317;Just the knowledge I have about those foods contents.;5;yes;no;32;female;yes;;no;
qza2yw7qkddd;2025-04-24;testing;NA;27;Bread roll;Bild4.png;0;45;44;17064,899999999907;87;1292305,100;1308036;4, 5;1308036, 1308271;Just the knowledge I have about those foods contents.;5;yes;no;32;female;yes;;no;
qza2yw7qkddd;2025-04-24;testing;NA;28;Yogurt;Bild39.png;0;67;6;3169,499999904539;122;1309378,600;1311210;6, 7;1311210, 1311434;Just the knowledge I have about those foods contents.;5;yes;no;32;female;yes;;no;
qza2yw7qkddd;2025-04-24;testing;NA;29;Raspberry;Bild35.png;0;4;5;2566,002000047592;72;1312552,198;1314111;4;1314111;Just the knowledge I have about those foods contents.;5;yes;no;32;female;yes;;no;
qza2yw7qkddd;2025-04-24;testing;NA;30;Curd cheese;Bild40.png;0;34;4;4457,300000047777;112;1315125,400;1316881;3, 4;1316881, 1317122;Just the knowledge I have about those foods contents.;5;yes;no;32;female;yes;;no;
qza2yw7qkddd;2025-04-24;testing;NA;31;Bread;Bild7.png;0;43;43;4886,500000000000;110;1319589,500;1323039;4, 3;1323039, 1323468;Just the knowledge I have about those foods contents.;5;yes;no;32;female;yes;;no;
qza2yw7qkddd;2025-04-24;testing;NA;32;Fried egg;Bild17.png;0;23;2;3837,099999952363;110;1324486,700;1327118;2, 3;1327118, 1327318;Just the knowledge I have about those foods contents.;5;yes;no;32;female;yes;;no;
qza2yw7qkddd;2025-04-24;testing;NA;33;Whipped cream;Bild71.png;0;79;3;3761,867999904556;126;1328326,232;1330569;7, 9;1330569, 1330893;Just the knowledge I have about those foods contents.;5;yes;no;32;female;yes;;no;
qza2yw7qkddd;2025-04-24;testing;NA;34;Spaghetti;Bild1.png;1;28;28;6473,500000000000;73;1332099,000;1335927;2, 8;1335927, 1336412;Just the knowledge I have about those foods contents.;5;yes;no;32;female;yes;;no;
qza2yw7qkddd;2025-04-24;testing;NA;35;Banana;Bild26.png;0;67;20;2945,499999904539;106;1338578,600;1340340;6, 7;1340340, 1340574;Just the knowledge I have about those foods contents.;5;yes;no;32;female;yes;;no;
qza2yw7qkddd;2025-04-24;testing;NA;36;Butter;Bild42.png;0;77;1;2689,400000047637;117;1341535,300;1342991;7, 7;1342991, 1343162;Just the knowledge I have about those foods contents.;5;yes;no;32;female;yes;;no;
qza2yw7qkddd;2025-04-24;testing;NA;37;Orange;Bild30.png;0;3;8;2922,899999952409;92;1344225,400;1345997;3;1345997;Just the knowledge I have about those foods contents.;5;yes;no;32;female;yes;;no;
qza2yw7qkddd;2025-04-24;testing;NA;38;Carrots;Bild15.png;0;23;7;2863,100000047591;95;1347157,100;1348538;2, 3;1348538, 1348774;Just the knowledge I have about those foods contents.;5;yes;no;32;female;yes;;no;
qza2yw7qkddd;2025-04-24;testing;NA;39;Cream cheese;Bild45.png;0;23;3;3097,833999904571;112;1350022,266;1351924;2, 3;1351924, 1352130;Just the knowledge I have about those foods contents.;5;yes;no;32;female;yes;;no;
qza2yw7qkddd;2025-04-24;testing;NA;40;Cauliflower;Bild21.png;0;56;2;2992,800000047777;94;1353120,400;1354773;5, 6;1354773, 1355051;Just the knowledge I have about those foods contents.;5;yes;no;32;female;yes;;no;
qza2yw7qkddd;2025-04-24;testing;NA;41;Walnuts;Bild70.png;1;4;4;4314,300000095274;113;1356118,600;1359235;4;1359235;Just the knowledge I have about those foods contents.;5;yes;no;32;female;yes;;no;
qza2yw7qkddd;2025-04-24;testing;NA;42;Peanut butter;Bild58.png;0;45;17;3356,702000000048;118;1360433,298;1362606;4, 5;1362606, 1362798;Just the knowledge I have about those foods contents.;5;yes;no;32;female;yes;;no;
qza2yw7qkddd;2025-04-24;testing;NA;43;Vienna sausages;Bild48.png;0;32;1;3406,134000047576;111;1363789,566;1365658;3, 2;1365658, 1366090;Just the knowledge I have about those foods contents.;5;yes;no;32;female;yes;;no;
qza2yw7qkddd;2025-04-24;testing;NA;44;Pretzel sticks;Bild64.png;0;30;72;4022,299999952316;98;1367204,000;1369356;3, 0;1369356, 1370220;Just the knowledge I have about those foods contents.;5;yes;no;32;female;yes;;no;
qza2yw7qkddd;2025-04-24;testing;NA;45;Peas;Bild23.png;0;45;9;4687,136000095401;103;1371226,764;1374720;4, 5;1374720, 1374942;Just the knowledge I have about those foods contents.;5;yes;no;32;female;yes;;no;
qza2yw7qkddd;2025-04-24;testing;NA;46;Mushrooms;Bild22.png;1;1;1;2835,899999952409;106;1375923,900;1377755;1;1377755;Just the knowledge I have about those foods contents.;5;yes;no;32;female;yes;;no;
qza2yw7qkddd;2025-04-24;testing;NA;47;Gouda cheese;Bild41.png;0;34;0;3285,699999999953;89;1378772,300;1380803;3, 4;1380803, 1381043;Just the knowledge I have about those foods contents.;5;yes;no;32;female;yes;;no;
qza2yw7qkddd;2025-04-24;testing;NA;48;Radishes;Bild73.png;0;2;2;3726,699999904726;123;1382070,400;1384079;2;1384079;Just the knowledge I have about those foods contents.;5;yes;no;32;female;yes;;no;
qza2yw7qkddd;2025-04-24;testing;NA;49;Mandarin;Bild31.png;0;12;10;7160,399999904679;100;1385801,700;1387182;NA, 1, 2, NA, NA, NA, NA, NA, 1, 2;1387182, 1388512, 1388703, 1389961, 1390470, 1390507, 1390552, 1390587, 1391481, 1391694;Just the knowledge I have about those foods contents.;5;yes;no;32;female;yes;;no;
qza2yw7qkddd;2025-04-24;testing;NA;50;French fries;Bild76.png;0;45;24;3243,934000047622;122;1392964,266;1394887;4, 5;1394887, 1395129;Just the knowledge I have about those foods contents.;5;yes;no;32;female;yes;;no;
qza2yw7qkddd;2025-04-24;testing;NA;51;Ice cream;Bild60.png;0;70;19;4105,270000095479;104;1396212,630;1398322;7, 0;1398322, 1399276;Just the knowledge I have about those foods contents.;5;yes;no;32;female;yes;;no;
qza2yw7qkddd;2025-04-24;testing;NA;52;Shrimps;Bild50.png;0;3;3;3670,299999952316;137;1400328,500;1402693;3;1402693;Just the knowledge I have about those foods contents.;5;yes;no;32;female;yes;;no;
qza2yw7qkddd;2025-04-24;testing;NA;53;Feta;Bild43.png;0;56;1;3901,599999952363;94;1403999,700;1406622;5, 6;1406622, 1406844;Just the knowledge I have about those foods contents.;5;yes;no;32;female;yes;;no;
qza2yw7qkddd;2025-04-24;testing;NA;54;Rigatoni;Bild3.png;0;55;34;5340,299999952316;126;1407914,000;1412308;5, 5;1412308, 1412495;Just the knowledge I have about those foods contents.;5;yes;no;32;female;yes;;no;
qza2yw7qkddd;2025-04-24;testing;NA;55;Bulgur;Bild10.png;0;89;24;3151,299999952316;89;1413261,000;1415089;8, 9;1415089, 1415330;Just the knowledge I have about those foods contents.;5;yes;no;32;female;yes;;no;
qza2yw7qkddd;2025-04-24;testing;NA;56;Apple turnover;Bild65.png;1;34;34;6314,500000000000;96;1416417,500;1421425;3, 4;1421425, 1421619;Just the knowledge I have about those foods contents.;5;yes;no;32;female;yes;;no;
qza2yw7qkddd;2025-04-24;testing;NA;57;Grapes;Bild38.png;0;2;15;2886,799999904586;112;1422738,800;1424495;2;1424495;Just the knowledge I have about those foods contents.;5;yes;no;32;female;yes;;no;
qza2yw7qkddd;2025-04-24;testing;NA;58;White toast;Bild9.png;0;34;47;4507,300000000047;96;1425637,200;1428085;3, 4;1428085, 1428974;Just the knowledge I have about those foods contents.;5;yes;no;32;female;yes;;no;
qza2yw7qkddd;2025-04-24;testing;NA;59;Chocolate;Bild61.png;0;56;55;3542,199999999953;120;1430151,300;1432212;5, 6;1432212, 1432584;Just the knowledge I have about those foods contents.;5;yes;no;32;female;yes;;no;
qza2yw7qkddd;2025-04-24;testing;NA;60;Raspberry jam;Bild56.png;0;4;52;2363,999999904539;120;1433707,600;1434870;4;1434870;Just the knowledge I have about those foods contents.;5;yes;no;32;female;yes;;no;
qza2yw7qkddd;2025-04-24;testing;NA;61;Pineapple;Bild33.png;0;45;12;3564,800000000047;103;1436081,200;1437486;4, 5;1437486, 1437711;Just the knowledge I have about those foods contents.;5;yes;no;32;female;yes;;no;
qza2yw7qkddd;2025-04-24;testing;NA;62;Honey;Bild57.png;0;3;81;3704,300000047777;98;1439655,900;1441963;3;1441963;Just the knowledge I have about those foods contents.;5;yes;no;32;female;yes;;no;
qza2yw7qkddd;2025-04-24;testing;NA;63;Kinder chocolate bar;Bild77.png;0;34;54;5251,800000047777;115;1443360,400;1446961;3, 4;1446961, 1447245;Just the knowledge I have about those foods contents.;5;yes;no;32;female;yes;;no;
qza2yw7qkddd;2025-04-24;testing;NA;64;Salami;Bild46.png;0;2;1;3261,400000047637;111;1448615,800;1450531;2;1450531;Just the knowledge I have about those foods contents.;5;yes;no;32;female;yes;;no;
qza2yw7qkddd;2025-04-24;testing;NA;65;Vanilla pudding;Bild62.png;0;88;14;5935,637999952305;173;1451880,662;1456274;8, 8;1456274, 1456453;Just the knowledge I have about those foods contents.;5;yes;no;32;female;yes;;no;
