ID;timestamp;phase;block;trial;ID_item;img;training;est;true;rt_ms;response_duration_ms;time_stim_shown;first_input;input_values;input_times;strategy;mammal_knowledge;quality;cheated;age;gender;undisturbed;undisturbed_specific;technical_problems;technical_problems_specific
chp46vl70814;2025-04-23;training;1;0;Bottlenosed dolphin;38.png;1;500;2831;8147,200000000012;100;230017,300;235524;5, 0, 0;235524, 235823, 236048;The size and type of the animal relative to other mammals;4;yes;no;35;female;yes;;no;
chp46vl70814;2025-04-23;training;1;1;Red panda;09.png;1;500;550;5213,699999999983;94;243046,900;244975;5, 0, 0;244975, 245424, 245724;The size and type of the animal relative to other mammals;4;yes;no;35;female;yes;;no;
chp46vl70814;2025-04-23;training;1;2;Western gray kangaroo;41.png;1;1000;670;4797,599999999948;183;251833,600;253624;1, 0, 0, 0;253624, 253999, 254162, 254325;The size and type of the animal relative to other mammals;4;yes;no;35;female;yes;;no;
chp46vl70814;2025-04-23;training;1;3;Nutria;76.png;1;100;152;3282,700000000041;78;257864,100;260062;1, 0, 0;260062, 260324, 260473;The size and type of the animal relative to other mammals;4;yes;no;35;female;yes;;no;
chp46vl70814;2025-04-23;training;1;4;Wart hog;17.png;1;365;578;3709,599999999977;85;262107,000;264637;3, 6, 5;264637, 264924, 265162;The size and type of the animal relative to other mammals;4;yes;no;35;female;yes;;no;
chp46vl70814;2025-04-23;training;1;5;Sugar glider;43.png;1;50;236;2916,600000000035;78;267719,800;269862;5, 0;269862, 270036;The size and type of the animal relative to other mammals;4;yes;no;35;female;yes;;no;
chp46vl70814;2025-04-23;training;1;6;Slender loris;68.png;1;250;380;3205,700000000070;62;271862,600;273937;2, 5, 0;273937, 274050, 274449;The size and type of the animal relative to other mammals;4;yes;no;35;female;yes;;no;
chp46vl70814;2025-04-23;training;1;7;Tiger;26.png;1;700;1268;4860,000000000000;78;276740,400;280260;7, 0, 0;280260, 280336, 280898;The size and type of the animal relative to other mammals;4;yes;no;35;female;yes;;no;
chp46vl70814;2025-04-23;training;1;8;Stump-tailed macaque;59.png;1;500;1186;2115,300000000047;93;283121,500;284749;5, 0, 0;284749, 284799, 284986;The size and type of the animal relative to other mammals;4;yes;no;35;female;yes;;no;
chp46vl70814;2025-04-23;training;1;9;Eurasian red squirrel;77.png;1;160;296;3735,800000000047;97;286178,600;288360;1, 6, 0;288360, 289211, 289323;The size and type of the animal relative to other mammals;4;yes;no;35;female;yes;;no;
chp46vl70814;2025-04-23;training;1;10;African buffalo;10.png;1;1200;1475;4451,100000000035;78;290839,200;293867;1, 2, 0, 0;293867, 294050, 294337, 294499;The size and type of the animal relative to other mammals;4;yes;no;35;female;yes;;no;
chp46vl70814;2025-04-23;training;1;11;African bush elephant;70.png;1;2500;4018;3228,400000000023;78;296067,900;297838;2, 5, 0, 0;297838, 298387, 298587, 298736;The size and type of the animal relative to other mammals;4;yes;no;35;female;yes;;no;
chp46vl70814;2025-04-23;training;2;0;Western gray kangaroo;41.png;1;1000;670;5803,299999999988;116;301363,300;304525;1, 0, 0, 0;304525, 306176, 306363, 306538;The size and type of the animal relative to other mammals;4;yes;no;35;female;yes;;no;
chp46vl70814;2025-04-23;training;2;1;Wart hog;17.png;1;700;578;3658,000000000000;102;308028,400;311176;7, 0, 0;311176, 311212, 311400;The size and type of the animal relative to other mammals;4;yes;no;35;female;yes;;no;
chp46vl70814;2025-04-23;training;2;2;Tiger;26.png;1;2500;1268;4504,699999999953;92;312572,000;315874;2, 5, 0, 0;315874, 315975, 316538, 316700;The size and type of the animal relative to other mammals;4;yes;no;35;female;yes;;no;
chp46vl70814;2025-04-23;training;2;3;African buffalo;10.png;1;2000;1475;2529,100000000035;135;318017,800;319574;2, 0, 0, 0;319574, 319812, 319988, 320125;The size and type of the animal relative to other mammals;4;yes;no;35;female;yes;;no;
chp46vl70814;2025-04-23;training;2;4;African bush elephant;70.png;1;4000;4018;3824,199999999953;153;321458,900;324363;4, 0, 0, 0;324363, 324501, 324688, 324838;The size and type of the animal relative to other mammals;4;yes;no;35;female;yes;;no;
chp46vl70814;2025-04-23;training;2;5;Eurasian red squirrel;77.png;1;350;296;2970,199999999953;110;326520,500;328212;3, 5, 0;328212, 328724, 329163;The size and type of the animal relative to other mammals;4;yes;no;35;female;yes;;no;
chp46vl70814;2025-04-23;training;2;6;Nutria;76.png;1;250;152;3407,000000000058;153;330329,300;332576;2, 5, 0;332576, 333025, 333325;The size and type of the animal relative to other mammals;4;yes;no;35;female;yes;;no;
chp46vl70814;2025-04-23;training;2;7;Stump-tailed macaque;59.png;1;250;1186;2016,899999999965;112;334655,800;335826;2, 5, 0;335826, 336012, 336349;The size and type of the animal relative to other mammals;4;yes;no;35;female;yes;;no;
chp46vl70814;2025-04-23;training;2;8;Bottlenosed dolphin;38.png;1;2800;2831;2722,900000000023;114;337545,600;339248;2, 8, 0, 0;339248, 339424, 339699, 339849;The size and type of the animal relative to other mammals;4;yes;no;35;female;yes;;no;
chp46vl70814;2025-04-23;training;2;9;Slender loris;68.png;1;1000;380;3246,999999999942;87;341137,200;343311;1, 0, 0, 0;343311, 343599, 343762, 343924;The size and type of the animal relative to other mammals;4;yes;no;35;female;yes;;no;
chp46vl70814;2025-04-23;training;2;10;Red panda;09.png;1;350;550;2577,000000000058;113;345547,300;347064;3, 5, 0;347064, 347249, 347813;The size and type of the animal relative to other mammals;4;yes;no;35;female;yes;;no;
chp46vl70814;2025-04-23;training;2;11;Sugar glider;43.png;1;300;236;2955,200000000012;102;349105,300;350602;3, 0, 0;350602, 351550, 351725;The size and type of the animal relative to other mammals;4;yes;no;35;female;yes;;no;
chp46vl70814;2025-04-23;training;3;0;Bottlenosed dolphin;38.png;1;2800;2831;2214,899999999965;126;353999,800;355338;2, 8, 0, 0;355338, 355524, 355750, 355912;The size and type of the animal relative to other mammals;4;yes;no;35;female;yes;;no;
chp46vl70814;2025-04-23;training;3;1;Wart hog;17.png;1;550;578;3079,100000000035;102;356923,200;359314;5, 5, 0;359314, 359414, 359637;The size and type of the animal relative to other mammals;4;yes;no;35;female;yes;;no;
chp46vl70814;2025-04-23;training;3;2;Sugar glider;43.png;1;300;236;3164,900000000023;134;360865,600;362677;3, 0, 0;362677, 363563, 363724;The size and type of the animal relative to other mammals;4;yes;no;35;female;yes;;no;
chp46vl70814;2025-04-23;training;3;3;African bush elephant;70.png;1;4000;4018;2466,000000000000;96;364874,600;366486;4, 0, 0, 0;366486, 366649, 366825, 366989;The size and type of the animal relative to other mammals;4;yes;no;35;female;yes;;no;
chp46vl70814;2025-04-23;training;3;4;Stump-tailed macaque;59.png;1;1200;1186;4811,399999999965;104;368065,200;371976;1, 2, 0, 0;371976, 372124, 372437, 372600;The size and type of the animal relative to other mammals;4;yes;no;35;female;yes;;no;
chp46vl70814;2025-04-23;training;3;5;Western gray kangaroo;41.png;1;1500;670;2527,500000000058;73;373694,800;375401;1, 5, 0, 0;375401, 375513, 375812, 375964;The size and type of the animal relative to other mammals;4;yes;no;35;female;yes;;no;
chp46vl70814;2025-04-23;training;3;6;Tiger;26.png;1;2500;1268;2271,900000000023;86;377052,400;378414;2, 5, 0, 0;378414, 378537, 378863, 379026;The size and type of the animal relative to other mammals;4;yes;no;35;female;yes;;no;
chp46vl70814;2025-04-23;training;3;7;African buffalo;10.png;1;2000;1475;4925,700000000012;116;380677,200;384752;2, 0, 0, 0;384752, 385001, 385163, 385288;The size and type of the animal relative to other mammals;4;yes;no;35;female;yes;;no;
chp46vl70814;2025-04-23;training;3;8;Slender loris;68.png;1;365;380;2676,599999999977;126;386523,900;388175;3, 6, 5;388175, 388338, 388763;The size and type of the animal relative to other mammals;4;yes;no;35;female;yes;;no;
chp46vl70814;2025-04-23;training;3;9;Red panda;09.png;1;550;550;2665,700000000012;106;390098,700;391865;5, 5, 0;391865, 391912, 392287;The size and type of the animal relative to other mammals;4;yes;no;35;female;yes;;no;
chp46vl70814;2025-04-23;training;3;10;Eurasian red squirrel;77.png;1;230;296;6102,200000000070;86;393640,100;395226;3, 5, 0, 2, 3, 0;395226, 395601, 396063, 398311, 398388, 398688;The size and type of the animal relative to other mammals;4;yes;no;35;female;yes;;no;
chp46vl70814;2025-04-23;training;3;11;Nutria;76.png;1;152;152;4729,999999999942;118;400622,700;401899;2, 3, NA, NA, 1, 5, 2;401899, 402050, 402889, 403039, 403601, 403976, 404913;The size and type of the animal relative to other mammals;4;yes;no;35;female;yes;;no;
chp46vl70814;2025-04-23;training;4;0;Nutria;76.png;1;152;152;1923,399999999965;110;407321,300;408601;1, 5, 2;408601, 408801, 408926;The size and type of the animal relative to other mammals;4;yes;no;35;female;yes;;no;
chp46vl70814;2025-04-23;training;4;1;Sugar glider;43.png;1;350;236;2653,000000000000;127;409977,500;411252;3, 5, 0;411252, 412014, 412289;The size and type of the animal relative to other mammals;4;yes;no;35;female;yes;;no;
chp46vl70814;2025-04-23;training;4;2;Tiger;26.png;1;1250;1268;2873,499999999942;94;413435,200;414576;1, 2, 5, 0;414576, 414889, 415089, 415589;The size and type of the animal relative to other mammals;4;yes;no;35;female;yes;;no;
chp46vl70814;2025-04-23;training;4;3;Red panda;09.png;1;400;550;3907,900000000023;86;417160,600;420002;4, 0, 0;420002, 420226, 420389;The size and type of the animal relative to other mammals;4;yes;no;35;female;yes;;no;
chp46vl70814;2025-04-23;training;4;4;African bush elephant;70.png;1;4000;4018;4521,599999999977;28;421854,500;424314;5, NA, 4, 0, 0, 0;424314, 425064, 425239, 425351, 425501, 425637;The size and type of the animal relative to other mammals;4;yes;no;35;female;yes;;no;
chp46vl70814;2025-04-23;training;4;5;Western gray kangaroo;41.png;1;700;670;3387,500000000000;76;427032,900;429588;7, 0, 0;429588, 429813, 429950;The size and type of the animal relative to other mammals;4;yes;no;35;female;yes;;no;
chp46vl70814;2025-04-23;training;4;6;Slender loris;68.png;1;365;380;3614,699999999953;110;431225,900;433752;3, 6, 5;433752, 433826, 434039;The size and type of the animal relative to other mammals;4;yes;no;35;female;yes;;no;
chp46vl70814;2025-04-23;training;4;7;Stump-tailed macaque;59.png;1;1200;1186;2733,299999999988;102;435619,300;437027;1, 2, 0, 0;437027, 437138, 437467, 437626;The size and type of the animal relative to other mammals;4;yes;no;35;female;yes;;no;
chp46vl70814;2025-04-23;training;4;8;Bottlenosed dolphin;38.png;1;3;2831;1382,899999999965;86;439177,200;440189;3;440189;The size and type of the animal relative to other mammals;4;yes;no;35;female;yes;;no;
chp46vl70814;2025-04-23;training;4;9;Eurasian red squirrel;77.png;1;230;296;9753,000000000000;101;442117,400;448427;3, 5, 0, NA, NA, NA, 2, 3, 0;448427, 448639, 449076, 450277, 450463, 450576, 450704, 450777, 450852;The size and type of the animal relative to other mammals;4;yes;no;35;female;yes;;no;
chp46vl70814;2025-04-23;training;4;10;Wart hog;17.png;1;500;578;2558,599999999977;93;452691,600;454051;5, 0, 0;454051, 454576, 454751;The size and type of the animal relative to other mammals;4;yes;no;35;female;yes;;no;
chp46vl70814;2025-04-23;training;4;11;African buffalo;10.png;1;800;1475;3991,599999999977;62;456082,600;457215;1, 5, NA, NA, 8, 0, 0;457215, 457814, 458763, 458902, 459202, 459378, 459527;The size and type of the animal relative to other mammals;4;yes;no;35;female;yes;;no;
chp46vl70814;2025-04-23;training;5;0;Bottlenosed dolphin;38.png;1;2813;2831;4613,500000000000;76;461879,000;465351;2, 8, 1, 3;465351, 465602, 465926, 466064;The size and type of the animal relative to other mammals;4;yes;no;35;female;yes;;no;
chp46vl70814;2025-04-23;training;5;1;Sugar glider;43.png;1;230;236;3281,500000000000;120;467425,100;469475;2, 3, 0;469475, 469628, 470301;The size and type of the animal relative to other mammals;4;yes;no;35;female;yes;;no;
chp46vl70814;2025-04-23;training;5;2;Nutria;76.png;1;152;152;1665,200000000070;112;471467,600;472514;1, 5, 2;472514, 472688, 472802;The size and type of the animal relative to other mammals;4;yes;no;35;female;yes;;no;
chp46vl70814;2025-04-23;training;5;3;Slender loris;68.png;1;380;380;2588,200000000012;92;473806,200;475151;3, 8, 0;475151, 475890, 476114;The size and type of the animal relative to other mammals;4;yes;no;35;female;yes;;no;
chp46vl70814;2025-04-23;training;5;4;African buffalo;10.png;1;1475;1475;4311,900000000023;103;477080,400;480590;1, 4, 7, 5;480590, 480640, 480965, 481090;The size and type of the animal relative to other mammals;4;yes;no;35;female;yes;;no;
chp46vl70814;2025-04-23;training;5;5;Western gray kangaroo;41.png;1;700;670;4881,099999999977;NA;482108,500;483565;1, 2, 0, 7, 0, 0;483565, 483588, 484240, 486227, 486464, 486602;The size and type of the animal relative to other mammals;4;yes;no;35;female;yes;;no;
chp46vl70814;2025-04-23;training;5;6;Eurasian red squirrel;77.png;1;250;296;2693,500000000000;71;487855,000;489127;2, 5, 0;489127, 489389, 490051;The size and type of the animal relative to other mammals;4;yes;no;35;female;yes;;no;
chp46vl70814;2025-04-23;training;5;7;Wart hog;17.png;1;580;578;5713,000000000058;94;491279,300;492815;5, 8, 0;492815, 495277, 496077;The size and type of the animal relative to other mammals;4;yes;no;35;female;yes;;no;
chp46vl70814;2025-04-23;training;5;8;Red panda;09.png;1;550;550;2004,299999999988;84;497844,300;499178;5, 5, 0;499178, 499264, 499465;The size and type of the animal relative to other mammals;4;yes;no;35;female;yes;;no;
chp46vl70814;2025-04-23;training;5;9;African bush elephant;70.png;1;4018;4018;4171,700000000012;68;500550,700;502249;4, 0, 1, 8;502249, 503604, 503940, 504190;The size and type of the animal relative to other mammals;4;yes;no;35;female;yes;;no;
chp46vl70814;2025-04-23;training;5;10;Tiger;26.png;1;1256;1268;2375,300000000047;70;505395,000;506689;1, 2, 5, 6;506689, 506726, 506977, 507214;The size and type of the animal relative to other mammals;4;yes;no;35;female;yes;;no;
chp46vl70814;2025-04-23;training;5;11;Stump-tailed macaque;59.png;1;1200;1186;2372,200000000012;81;508518,700;509802;1, 2, 0, 0;509802, 509890, 510364, 510515;The size and type of the animal relative to other mammals;4;yes;no;35;female;yes;;no;
chp46vl70814;2025-04-23;testing;NA;0;Caribou and reindeer;14.png;0;1250;662;9678,200000000070;68;527228,100;530866;1, 2, NA, NA, 1, 2, 5, 0;530866, 530978, 532303, 532491, 533615, 533703, 534516, 535065;The size and type of the animal relative to other mammals;4;yes;no;35;female;yes;;no;
chp46vl70814;2025-04-23;testing;NA;1;Guinea pig;72.png;0;150;66;3479,300000000047;78;536917,100;539104;1, 5, 0;539104, 539228, 539640;The size and type of the animal relative to other mammals;4;yes;no;35;female;yes;;no;
chp46vl70814;2025-04-23;testing;NA;2;Mountain hare;46.png;0;260;266;4791,199999999953;86;540424,800;542216;1, 2, 6, 0;542216, 543301, 543801, 544526;The size and type of the animal relative to other mammals;4;yes;no;35;female;yes;;no;
chp46vl70814;2025-04-23;testing;NA;3;Raccoon dog;21.png;0;200;304;2338,700000000070;86;545235,600;546591;2, 0, 0;546591, 546927, 547065;The size and type of the animal relative to other mammals;4;yes;no;35;female;yes;;no;
chp46vl70814;2025-04-23;testing;NA;4;Duck-billed platypus;48.png;0;350;548;5601,199999999953;54;547591,000;551816;3, 5, 0;551816, 552115, 552414;The size and type of the animal relative to other mammals;4;yes;no;35;female;yes;;no;
chp46vl70814;2025-04-23;testing;NA;5;Quagga;51.png;0;700;900;4782,100000000093;NA;553220,700;557077;7, 0, 0;557077, 557303, 557453;The size and type of the animal relative to other mammals;4;yes;no;35;female;yes;;no;
chp46vl70814;2025-04-23;testing;NA;6;European rabbit;47.png;0;152;730;2587,800000000047;NA;558014,700;559503;1, 5, 2;559503, 559703, 559841;The size and type of the animal relative to other mammals;4;yes;no;35;female;yes;;no;
chp46vl70814;2025-04-23;testing;NA;7;White rhinoceros;52.png;0;3500;1643;3461,000000000000;NA;560604,000;562891;3, 5, 0, 0;562891, 563077, 563390, 563565;The size and type of the animal relative to other mammals;4;yes;no;35;female;yes;;no;
chp46vl70814;2025-04-23;testing;NA;8;Horse;50.png;0;1200;914;2761,400000000023;NA;564078,600;565691;1, 2, 0, 0;565691, 565853, 566178, 566315;The size and type of the animal relative to other mammals;4;yes;no;35;female;yes;;no;
chp46vl70814;2025-04-23;testing;NA;9;African wild dog;20.png;0;700;639;2863,000000000000;NA;566851,600;569314;7, 0, 0;569314, 569428, 569553;The size and type of the animal relative to other mammals;4;yes;no;35;female;yes;;no;
chp46vl70814;2025-04-23;testing;NA;10;Humpback whale;37.png;0;5000;1643;2527,699999999953;NA;569724,900;571664;5, 0, 0, 0;571664, 571739, 571891, 572015;The size and type of the animal relative to other mammals;4;yes;no;35;female;yes;;no;
chp46vl70814;2025-04-23;testing;NA;11;Lion;24.png;0;1200;1095;1813,300000000047;NA;572264,100;573354;1, 2, 0, 0;573354, 573390, 573828, 573941;The size and type of the animal relative to other mammals;4;yes;no;35;female;yes;;no;
chp46vl70814;2025-04-23;testing;NA;12;Steller sea lion;32.png;0;700;1780;2430,000000000000;NA;574084,800;575979;7, 0, 0;575979, 576166, 576303;The size and type of the animal relative to other mammals;4;yes;no;35;female;yes;;no;
chp46vl70814;2025-04-23;testing;NA;13;Koala;45.png;0;250;646;1653,800000000047;NA;576523,600;577715;2, 5, 0;577715, 577827, 577940;The size and type of the animal relative to other mammals;4;yes;no;35;female;yes;;no;
chp46vl70814;2025-04-23;testing;NA;14;Hippopotamus;16.png;0;4000;1279;1671,000000000000;NA;578194,200;579215;4, 0, 0, 0;579215, 579266, 579416, 579553;The size and type of the animal relative to other mammals;4;yes;no;35;female;yes;;no;
chp46vl70814;2025-04-23;testing;NA;15;Thomson's gazelle;06.png;0;1200;365;1933,199999999953;NA;579881,400;581091;1, 2, 0, 0;581091, 581101, 581578, 581702;The size and type of the animal relative to other mammals;4;yes;no;35;female;yes;;no;
chp46vl70814;2025-04-23;testing;NA;16;Gray wolf;19.png;0;700;669;1858,000000000000;NA;581819,100;583265;7, 0, 0;583265, 583379, 583516;The size and type of the animal relative to other mammals;4;yes;no;35;female;yes;;no;
chp46vl70814;2025-04-23;testing;NA;17;Wild boar;18.png;0;550;334;1487,700000000070;NA;583690,100;584829;5, 5, 0;584829, 584990, 585040;The size and type of the animal relative to other mammals;4;yes;no;35;female;yes;;no;
chp46vl70814;2025-04-23;testing;NA;18;Japanese macaque;61.png;0;1200;1483;1283,900000000023;NA;585193,500;586040;1, 2, 0, 0;586040, 586165, 586228, 586365;The size and type of the animal relative to other mammals;4;yes;no;35;female;yes;;no;
chp46vl70814;2025-04-23;testing;NA;19;Western gray kangaroo;41.png;1;1250;670;4097,800000000047;NA;586479,700;587653;1, 2, 0, 0, NA, NA, 5, NA, 1, NA, 5, 0;587653, 587703, 587752, 587916, 588504, 588628, 588829, 589141, 589552, 589903, 590190, 590255;The size and type of the animal relative to other mammals;4;yes;no;35;female;yes;;no;
chp46vl70814;2025-04-23;testing;NA;20;Quokka;42.png;0;230;252;1913,599999999977;NA;590589,000;592003;2, 3, 0;592003, 592278, 592366;The size and type of the animal relative to other mammals;4;yes;no;35;female;yes;;no;
chp46vl70814;2025-04-23;testing;NA;21;Bottlenosed dolphin;38.png;1;2831;2831;5304,599999999977;NA;592510,100;594341;2, 0, NA, NA, 2, 8, 3, 1;594341, 594439, 594803, 594978, 595816, 595965, 596416, 596528;The size and type of the animal relative to other mammals;4;yes;no;35;female;yes;;no;
chp46vl70814;2025-04-23;testing;NA;22;Llama;07.png;0;1200;800;1479,800000000047;NA;597822,100;598878;1, 2, 0, 0;598878, 598991, 599052, 599191;The size and type of the animal relative to other mammals;4;yes;no;35;female;yes;;no;
chp46vl70814;2025-04-23;testing;NA;23;Common raccoon;34.png;0;300;365;1793,799999999930;NA;599308,900;600665;3, 0, 0;600665, 600853, 601003;The size and type of the animal relative to other mammals;4;yes;no;35;female;yes;;no;
chp46vl70814;2025-04-23;testing;NA;24;Basketball;AC.png;0;999;999;3726,599999999977;NA;601113,100;602289;9, 9, 9;602289, 602451, 602639;The size and type of the animal relative to other mammals;4;yes;no;35;female;yes;;no;
chp46vl70814;2025-04-23;testing;NA;25;Tasmanian devil;40.png;0;230;730;1522,300000000047;NA;604855,000;606078;2, 3, 0;606078, 606141, 606228;The size and type of the animal relative to other mammals;4;yes;no;35;female;yes;;no;
chp46vl70814;2025-04-23;testing;NA;26;Brown lemur;65.png;0;230;509;6448,500000000000;NA;606391,800;610813;1, NA, 2, 3, 0;610813, 611502, 612366, 612504, 612603;The size and type of the animal relative to other mammals;4;yes;no;35;female;yes;;no;
chp46vl70814;2025-04-23;testing;NA;27;Basketball;AC.png;0;999;999;1382,599999999977;NA;612856,400;613615;9, 9, 9;613615, 613765, 613940;The size and type of the animal relative to other mammals;4;yes;no;35;female;yes;;no;
chp46vl70814;2025-04-23;testing;NA;28;Spotted hyena;29.png;0;550;1095;2234,099999999977;NA;614242,900;615878;5, 5, 0;615878, 616027, 616114;The size and type of the animal relative to other mammals;4;yes;no;35;female;yes;;no;
chp46vl70814;2025-04-23;testing;NA;29;Leopard;25.png;0;700;937;3046,199999999953;NA;616481,400;618966;7, 0, 0;618966, 619165, 619315;The size and type of the animal relative to other mammals;4;yes;no;35;female;yes;;no;
chp46vl70814;2025-04-23;testing;NA;30;Sea otter;30.png;0;350;974;2239,000000000000;NA;619538,400;621278;3, 5, 0;621278, 621541, 621628;The size and type of the animal relative to other mammals;4;yes;no;35;female;yes;;no;
chp46vl70814;2025-04-23;testing;NA;31;Proboscis monkey;60.png;0;900;1460;1934,000000000000;NA;621793,500;623253;9, 0, 0;623253, 623441, 623578;The size and type of the animal relative to other mammals;4;yes;no;35;female;yes;;no;
chp46vl70814;2025-04-23;testing;NA;32;Meerkat;28.png;0;280;365;3783,599999999977;NA;623731,300;626904;2, 8, 0;626904, 626914, 627103;The size and type of the animal relative to other mammals;4;yes;no;35;female;yes;;no;
chp46vl70814;2025-04-23;testing;NA;33;Brown bear;35.png;0;3000;1313;3229,800000000047;NA;627523,200;630054;3, 0, 0, 0;630054, 630077, 630214, 630378;The size and type of the animal relative to other mammals;4;yes;no;35;female;yes;;no;
chp46vl70814;2025-04-23;testing;NA;34;Tufted capu;56.png;0;600;1703;2038,500000000000;NA;630764,000;632516;6, 0, 0;632516, 632552, 632690;The size and type of the animal relative to other mammals;4;yes;no;35;female;yes;;no;
chp46vl70814;2025-04-23;testing;NA;35;Lesser Egyptian jerboa;74.png;0;150;327;4245,900000000023;NA;632818,700;634452;1, 3, 0, NA, NA, 0, NA, 5, 0;634452, 635014, 635077, 636064, 636240, 636402, 636653, 636766, 636840;The size and type of the animal relative to other mammals;4;yes;no;35;female;yes;;no;
chp46vl70814;2025-04-23;testing;NA;36;Central American spider monkey;53.png;0;1200;1825;3049,199999999953;NA;637078,400;638427;1, 2, 0, 0;638427, 638552, 638665, 638776;The size and type of the animal relative to other mammals;4;yes;no;35;female;yes;;no;
chp46vl70814;2025-04-23;testing;NA;37;De Brazza's monkey;57.png;0;1200;1611;1204,199999999953;NA;640135,300;640879;1, 2, 0, 0;640879, 640966, 641108, 641166;The size and type of the animal relative to other mammals;4;yes;no;35;female;yes;;no;
chp46vl70814;2025-04-23;testing;NA;38;Red panda;09.png;1;550;550;1135,100000000093;NA;641354,700;642153;5, 5, 0;642153, 642315, 642353;The size and type of the animal relative to other mammals;4;yes;no;35;female;yes;;no;
chp46vl70814;2025-04-23;testing;NA;39;Harbor seal;33.png;0;700;1095;2186,800000000047;NA;642490,700;644378;7, 0, 0;644378, 644415, 644552;The size and type of the animal relative to other mammals;4;yes;no;35;female;yes;;no;
chp46vl70814;2025-04-23;testing;NA;40;White-tufted-ear marmoset;54.png;0;230;477;1585,199999999953;NA;644679,000;645966;2, 3, 0;645966, 646027, 646102;The size and type of the animal relative to other mammals;4;yes;no;35;female;yes;;no;
chp46vl70814;2025-04-23;testing;NA;41;Stump-tailed macaque;59.png;1;1200;1186;1386,000000000000;NA;646265,900;647154;1, 2, 0, 0;647154, 647214, 647369, 647466;The size and type of the animal relative to other mammals;4;yes;no;35;female;yes;;no;
chp46vl70814;2025-04-23;testing;NA;42;Black lemur;66.png;0;300;540;2969,800000000047;NA;647670,500;648652;3, 0, 0;648652, 648703, 648828;The size and type of the animal relative to other mammals;4;yes;no;35;female;yes;;no;
chp46vl70814;2025-04-23;testing;NA;43;Bat-eared fox;22.png;0;550;365;1472,300000000047;NA;650642,600;651815;5, 5, 0;651815, 651978, 652028;The size and type of the animal relative to other mammals;4;yes;no;35;female;yes;;no;
chp46vl70814;2025-04-23;testing;NA;44;Dromedary;12.png;0;2000;1095;2322,699999999953;NA;652129,400;653640;2, 0, 0, 0;653640, 653715, 653864, 654002;The size and type of the animal relative to other mammals;4;yes;no;35;female;yes;;no;
chp46vl70814;2025-04-23;testing;NA;45;Chimpanzee;63.png;0;1200;3376;1672,300000000047;NA;654468,000;655716;1, 2, 0, 0;655716, 655816, 655865, 656003;The size and type of the animal relative to other mammals;4;yes;no;35;female;yes;;no;
chp46vl70814;2025-04-23;testing;NA;46;Sugar glider;43.png;1;280;236;3146,900000000023;NA;656155,200;657166;2, 3, 0, NA, NA, 8, 0;657166, 657266, 657352, 658216, 658365, 658878, 659066;The size and type of the animal relative to other mammals;4;yes;no;35;female;yes;;no;
chp46vl70814;2025-04-23;testing;NA;47;Basketball;AC.png;0;999;999;1240,099999999977;NA;659312,400;659941;9, 9, 9;659941, 660103, 660278;The size and type of the animal relative to other mammals;4;yes;no;35;female;yes;;no;
chp46vl70814;2025-04-23;testing;NA;48;white-faced saki;69.png;0;900;775;2211,600000000093;NA;660565,200;662353;9, 0, 0;662353, 662528, 662666;The size and type of the animal relative to other mammals;4;yes;no;35;female;yes;;no;
chp46vl70814;2025-04-23;testing;NA;49;Short-beaked echidna;49.png;0;350;548;2553,099999999977;NA;662786,900;664816;3, 5, 0;664816, 664966, 665128;The size and type of the animal relative to other mammals;4;yes;no;35;female;yes;;no;
chp46vl70814;2025-04-23;testing;NA;50;Gorilla;62.png;0;3000;2829;5584,699999999953;NA;665342,800;667777;4, 0, 0, 0, NA, NA, NA, NA, 2, 0, 0, 0, NA, NA, NA, NA, 3, 0, 0, 0;667777, 667777, 667889, 668052, 668690, 668865, 669002, 669141, 669377, 669452, 669603, 669752, 669941, 670091, 670241, 670366, 670416, 670516, 670641, 670764;The size and type of the animal relative to other mammals;4;yes;no;35;female;yes;;no;
chp46vl70814;2025-04-23;testing;NA;51;Midas tamarin;55.png;0;230;608;1715,000000000000;NA;670938,800;672278;2, 3, 0;672278, 672453, 672528;The size and type of the animal relative to other mammals;4;yes;no;35;female;yes;;no;
chp46vl70814;2025-04-23;testing;NA;52;Polar bear;36.png;0;4000;1734;1455,800000000047;NA;672659,500;673641;4, 0, 0, 0;673641, 673691, 673853, 673991;The size and type of the animal relative to other mammals;4;yes;no;35;female;yes;;no;
chp46vl70814;2025-04-23;testing;NA;53;Dugong;79.png;0;1200;3470;2434,900000000023;NA;674129,500;675939;1, 2, 0, 0;675939, 676077, 676227, 676327;The size and type of the animal relative to other mammals;4;yes;no;35;female;yes;;no;
chp46vl70814;2025-04-23;testing;NA;54;Ibex;05.png;0;700;797;2471,400000000023;NA;676568,400;678290;7, 0, 0;678290, 678564, 678702;The size and type of the animal relative to other mammals;4;yes;no;35;female;yes;;no;
chp46vl70814;2025-04-23;testing;NA;55;Ring-tailed lemur;67.png;0;550;595;1837,200000000070;NA;679040,600;680252;5, 5, 0;680252, 680402, 680491;The size and type of the animal relative to other mammals;4;yes;no;35;female;yes;;no;
chp46vl70814;2025-04-23;testing;NA;56;African buffalo;10.png;1;1500;1475;2028,199999999953;NA;680911,800;682490;1, 5, 0, 0;682490, 682589, 682702, 682816;The size and type of the animal relative to other mammals;4;yes;no;35;female;yes;;no;
chp46vl70814;2025-04-23;testing;NA;57;Giraffe;15.png;0;3000;1278;1865,500000000000;NA;682949,800;684328;3, 0, 0, 0;684328, 684390, 684553, 684676;The size and type of the animal relative to other mammals;4;yes;no;35;female;yes;;no;
chp46vl70814;2025-04-23;testing;NA;58;Brush-tailed possum;44.png;0;230;315;1557,500000000000;NA;684820,500;686066;2, 3, 0;686066, 686166, 686228;The size and type of the animal relative to other mammals;4;yes;no;35;female;yes;;no;
chp46vl70814;2025-04-23;testing;NA;59;Dwarf mongoose;27.png;0;230;456;1199,399999999907;NA;686390,800;687229;2, 3, 0;687229, 687341, 687429;The size and type of the animal relative to other mammals;4;yes;no;35;female;yes;;no;
chp46vl70814;2025-04-23;testing;NA;60;Wart hog;17.png;1;670;578;2171,599999999977;NA;687593,500;689403;6, 7, 0;689403, 689603, 689665;The size and type of the animal relative to other mammals;4;yes;no;35;female;yes;;no;
chp46vl70814;2025-04-23;testing;NA;61;Cheetah;23.png;0;900;456;2570,500000000000;NA;689782,000;691704;9, 0, 0;691704, 691966, 692141;The size and type of the animal relative to other mammals;4;yes;no;35;female;yes;;no;
chp46vl70814;2025-04-23;testing;NA;62;Giant anteater;04.png;0;750;1186;2936,099999999977;NA;692354,400;694778;7, 5, 0;694778, 694815, 695065;The size and type of the animal relative to other mammals;4;yes;no;35;female;yes;;no;
chp46vl70814;2025-04-23;testing;NA;63;Orangutan;64.png;0;3000;2555;5845,900000000023;NA;695294,400;700479;3, 0, 0, 0;700479, 700604, 700752, 700878;The size and type of the animal relative to other mammals;4;yes;no;35;female;yes;;no;
chp46vl70814;2025-04-23;testing;NA;64;Nutria;76.png;1;152;152;1681,199999999953;NA;701158,900;702390;1, 5, 2;702390, 702503, 702628;The size and type of the animal relative to other mammals;4;yes;no;35;female;yes;;no;
chp46vl70814;2025-04-23;testing;NA;65;Mule deer;13.png;0;750;478;2570,500000000000;NA;702845,000;704953;7, 5, 0;704953, 705028, 705178;The size and type of the animal relative to other mammals;4;yes;no;35;female;yes;;no;
chp46vl70814;2025-04-23;testing;NA;66;Long-tailed field mouse;75.png;0;150;71;1935,299999999930;NA;705417,400;706466;1, 2, NA, 5, 0;706466, 706615, 707016, 707091, 707142;The size and type of the animal relative to other mammals;4;yes;no;35;female;yes;;no;
chp46vl70814;2025-04-23;testing;NA;67;Tiger;26.png;1;1250;1268;1547,900000000023;NA;707355,200;708328;1, 2, 5, 0;708328, 708453, 708641, 708691;The size and type of the animal relative to other mammals;4;yes;no;35;female;yes;;no;
chp46vl70814;2025-04-23;testing;NA;68;Bactrian camel;11.png;0;2000;1278;2255,899999999907;NA;708908,800;710602;2, 0, 0, 0;710602, 710728, 710890, 711027;The size and type of the animal relative to other mammals;4;yes;no;35;female;yes;;no;
chp46vl70814;2025-04-23;testing;NA;69;Aoudad;01.png;0;2000;335;1422,099999999977;NA;711180,600;711991;2, 0, 0, 0;711991, 712052, 712204, 712341;The size and type of the animal relative to other mammals;4;yes;no;35;female;yes;;no;
chp46vl70814;2025-04-23;testing;NA;70;African bush elephant;70.png;1;4000;4018;1635,600000000093;NA;712617,200;713740;4, 0, 0, 0;713740, 713777, 713916, 714053;The size and type of the animal relative to other mammals;4;yes;no;35;female;yes;;no;
chp46vl70814;2025-04-23;testing;NA;71;American bison;03.png;0;3000;912;1660,699999999953;NA;714254,200;715344;3, 0, 0, 0;715344, 715416, 715541, 715678;The size and type of the animal relative to other mammals;4;yes;no;35;female;yes;;no;
chp46vl70814;2025-04-23;testing;NA;72;Naked mole-rat;71.png;0;150;228;1615,199999999953;NA;715925,000;717041;1, 5, 0;717041, 717128, 717216;The size and type of the animal relative to other mammals;4;yes;no;35;female;yes;;no;
chp46vl70814;2025-04-23;testing;NA;73;Asiatic elephant;80.png;0;4000;3287;2532,700000000070;NA;717545,100;719379;4, 0, 0, 0;719379, 719490, 719616, 719766;The size and type of the animal relative to other mammals;4;yes;no;35;female;yes;;no;
chp46vl70814;2025-04-23;testing;NA;74;Guereza;58.png;0;800;1461;2943,199999999953;NA;720084,200;722514;8, 0, 0;722514, 722690, 722852;The size and type of the animal relative to other mammals;4;yes;no;35;female;yes;;no;
chp46vl70814;2025-04-23;testing;NA;75;Least weasel;31.png;0;250;120;2273,799999999930;NA;723040,900;724339;2, 5, 0;724339, 724690, 725152;The size and type of the animal relative to other mammals;4;yes;no;35;female;yes;;no;
chp46vl70814;2025-04-23;testing;NA;76;Brazilian tapir;02.png;0;550;1095;1673,100000000093;NA;725329,500;726465;5, 5, 0;726465, 726615, 726666;The size and type of the animal relative to other mammals;4;yes;no;35;female;yes;;no;
chp46vl70814;2025-04-23;testing;NA;77;Kirk's dik-dik;08.png;0;700;213;2573,100000000093;NA;727016,700;729002;7, 0, 0;729002, 729252, 729390;The size and type of the animal relative to other mammals;4;yes;no;35;female;yes;;no;
chp46vl70814;2025-04-23;testing;NA;78;Eurasian red squirrel;77.png;1;280;296;3546,400000000023;NA;729605,900;732639;2, 8, 0;732639, 732690, 732889;The size and type of the animal relative to other mammals;4;yes;no;35;female;yes;;no;
chp46vl70814;2025-04-23;testing;NA;79;Slender loris;68.png;1;380;380;2400,699999999953;NA;733164,200;735002;3, 8, 0;735002, 735127, 735340;The size and type of the animal relative to other mammals;4;yes;no;35;female;yes;;no;
chp46vl70814;2025-04-23;testing;NA;80;Degu;73.png;0;200;182;3270,300000000047;NA;735569,500;736990;2, 0, 0;736990, 737102, 737239;The size and type of the animal relative to other mammals;4;yes;no;35;female;yes;;no;
chp46vl70814;2025-04-23;testing;NA;81;Australian tiger cat;39.png;0;350;340;1804,399999999907;NA;738860,300;740127;3, 5, 0;740127, 740439, 740514;The size and type of the animal relative to other mammals;4;yes;no;35;female;yes;;no;
chp46vl70814;2025-04-23;testing;NA;82;Siberian chipmunk;78.png;0;230;350;2169,600000000093;NA;740682,200;742265;2, 3, 0;742265, 742627, 742664;The size and type of the animal relative to other mammals;4;yes;no;35;female;yes;;no;
apzvrxiaap22;2025-04-23;training;1;0;Nutria;76.png;1;24;152;34255,000000095373;2;164855,900;170867;NA, NA, NA, NA, NA, NA, NA, NA, NA, NA, NA, NA, NA, NA, NA, NA, NA, NA, NA, NA, NA, NA, NA, NA, NA, NA, NA, NA, NA, NA, NA, NA, NA, NA, NA, NA, NA, NA, NA, NA, NA, NA, NA, NA, NA, NA, NA, NA, NA, NA, NA, NA, NA, NA, NA, NA, NA, NA, NA, NA, NA, NA, NA, NA, NA, NA, NA, NA, NA, NA, NA, NA, NA, NA, NA, NA, NA, NA, NA, NA, NA, NA, NA, NA, NA, NA, NA, NA, NA, NA, NA, NA, NA, NA, NA, NA, NA, NA, NA, NA, NA, NA, NA, NA, NA, NA, NA, NA, NA, NA, NA, NA, NA, NA, NA, NA, NA, NA, NA, NA, NA, NA, NA, NA, NA, NA, NA, NA, NA, NA, NA, NA, NA, NA, NA, NA, NA, NA, NA, NA, NA, NA, NA, NA, NA, NA, NA, NA, NA, NA, NA, NA, NA, NA, NA, NA, NA, NA, NA, NA, NA, NA, NA, NA, NA, NA, NA, NA, NA, NA, NA, NA, NA, NA, NA, NA, NA, NA, NA, NA, NA, NA, NA, NA, NA, NA, NA, NA, NA, NA, NA, NA, NA, NA, NA, NA, NA, NA, NA, NA, NA, NA, NA, NA, NA, NA, NA, NA, NA, NA, NA, NA, NA, NA, NA, NA, NA, NA, NA, NA, NA, NA, NA, NA, NA, NA, NA, NA, NA, NA, NA, NA, NA, NA, NA, NA, NA, NA, NA, NA, NA, NA, NA, NA, NA, NA, NA, NA, NA, NA, NA, NA, NA, NA;170867, 171562, 171812, 172032, 172232, 172422, 172593, 173172, 173423, 173473, 173523, 173572, 173622, 173672, 173722, 173772, 174295, 174468, 174719, 174769, 174818, 174868, 174919, 174980, 175018, 175069, 175119, 175168, 175219, 175268, 175319, 175369, 175419, 175468, 175519, 175568, 175619, 175669, 175718, 175770, 175819, 175869, 175918, 175968, 176019, 176068, 176119, 176168, 176219, 176269, 176319, 176368, 176419, 176469, 176519, 176569, 176618, 176669, 176718, 176769, 176818, 176869, 176919, 176969, 177018, 177069, 177119, 177168, 177219, 177269, 177319, 177368, 177418, 177469, 177519, 177568, 177619, 177669, 177719, 177768, 177819, 177868, 177919, 177968, 178028, 178069, 178119, 178168, 178219, 178268, 178323, 178368, 178419, 178469, 178518, 178568, 179080, 179389, 179559, 179769, 179929, 180129, 180380, 180430, 180480, 180530, 180579, 180630, 180679, 180730, 180779, 180829, 180879, 180930, 180980, 181029, 181079, 181129, 181179, 181230, 181279, 181330, 181379, 182884, 183133, 183183, 183233, 183283, 183333, 183384, 183434, 183484, 183534, 183583, 183633, 184331, 184581, 184631, 184681, 184731, 184781, 184831, 184881, 184931, 184981, 185032, 185081, 185131, 185181, 185231, 185281, 185331, 185381, 185431, 185481, 185531, 185581, 185631, 185681, 185732, 185781, 185831, 185882, 185931, 185981, 186031, 186081, 186132, 186181, 186231, 186281, 186331, 186380, 186432, 186481, 186531, 186582, 186631, 186681, 186731, 186781, 186831, 186882, 186931, 186982, 187032, 187081, 187132, 187182, 187231, 187282, 187331, 187382, 187432, 187481, 187532, 187582, 187632, 187681, 187731, 187781, 187832, 187881, 187931, 187981, 188031, 188081, 188131, 188181, 188231, 188281, 188331, 188381, 188431, 188481, 188531, 188581, 188631, 188681, 188732, 188782, 188831, 188881, 188932, 188981, 189032, 189081, 189132, 189181, 189232, 189281, 189331, 189381, 189431, 189481, 189531, 189581, 189631, 189682, 189732, 189782, 189832, 189882, 189932, 189982, 190031, 192584, 192862, 193042, 193272, 193722, 193992, 194322, 195825;"I found it really interesting to see how bad my memory was!  In the end I tried to memorise a few and then judge all the others based on the few that I had ""tried"" to remember.  ";3;yes;no;54;female;yes;;no;
apzvrxiaap22;2025-04-23;training;1;1;Tiger;26.png;1;1852;1268;32297,200000047684;3;206752,500;233482;1, 8, 2, NA, 5, 2;233482, 234501, 235473, 236270, 236960, 237372;"I found it really interesting to see how bad my memory was!  In the end I tried to memorise a few and then judge all the others based on the few that I had ""tried"" to remember.  ";3;yes;no;54;female;yes;;no;
apzvrxiaap22;2025-04-23;training;1;2;Bottlenosed dolphin;38.png;1;1095;2831;13133,200000190729;2;243790,600;253007;1, 0, 9, 5;253007, 253982, 254209, 254604;"I found it really interesting to see how bad my memory was!  In the end I tried to memorise a few and then judge all the others based on the few that I had ""tried"" to remember.  ";3;yes;no;54;female;yes;;no;
apzvrxiaap22;2025-04-23;training;1;3;Red panda;09.png;1;1268;550;22633,399999999994;2;261716,100;274104;1, 2, 6, 8;274104, 277660, 279739, 280435;"I found it really interesting to see how bad my memory was!  In the end I tried to memorise a few and then judge all the others based on the few that I had ""tried"" to remember.  ";3;yes;no;54;female;yes;;no;
apzvrxiaap22;2025-04-23;training;1;4;African buffalo;10.png;1;2920;1475;20139,100000047707;3;288912,100;304509;2, 9, 2, 0;304509, 305488, 305980, 307039;"I found it really interesting to see how bad my memory was!  In the end I tried to memorise a few and then judge all the others based on the few that I had ""tried"" to remember.  ";3;yes;no;54;female;yes;;no;
apzvrxiaap22;2025-04-23;training;1;5;Sugar glider;43.png;1;600;236;16326,600000143051;18;313503,500;321518;7, 3, NA, NA, 6, 0, 0;321518, 321894, 323819, 324037, 327173, 327877, 328038;"I found it really interesting to see how bad my memory was!  In the end I tried to memorise a few and then judge all the others based on the few that I had ""tried"" to remember.  ";3;yes;no;54;female;yes;;no;
apzvrxiaap22;2025-04-23;training;1;6;African bush elephant;70.png;1;3650;4018;34129,900000047695;3;333803,800;360443;3, 0, NA, 6, 5, 0;360443, 361007, 361856, 362718, 363715, 364196;"I found it really interesting to see how bad my memory was!  In the end I tried to memorise a few and then judge all the others based on the few that I had ""tried"" to remember.  ";3;yes;no;54;female;yes;;no;
apzvrxiaap22;2025-04-23;training;1;7;Wart hog;17.png;1;1820;578;22355,600000047707;37;372235,600;388521;1, 8, 2, 0;388521, 389786, 391958, 392436;"I found it really interesting to see how bad my memory was!  In the end I tried to memorise a few and then judge all the others based on the few that I had ""tried"" to remember.  ";3;yes;no;54;female;yes;;no;
apzvrxiaap22;2025-04-23;training;1;8;Eurasian red squirrel;77.png;1;365;296;11617,200000095356;15;399115,200;408250;3, 6, 5;408250, 409067, 409264;"I found it really interesting to see how bad my memory was!  In the end I tried to memorise a few and then judge all the others based on the few that I had ""tried"" to remember.  ";3;yes;no;54;female;yes;;no;
apzvrxiaap22;2025-04-23;training;1;9;Slender loris;68.png;1;290;380;8919,800000190735;12;415096,500;418176;2, 9, 0;418176, 418589, 418797;"I found it really interesting to see how bad my memory was!  In the end I tried to memorise a few and then judge all the others based on the few that I had ""tried"" to remember.  ";3;yes;no;54;female;yes;;no;
apzvrxiaap22;2025-04-23;training;1;10;Stump-tailed macaque;59.png;1;1365;1186;44120,200000190758;2;428778,100;468616;1, 3, 6, 5;468616, 469723, 470675, 470881;"I found it really interesting to see how bad my memory was!  In the end I tried to memorise a few and then judge all the others based on the few that I had ""tried"" to remember.  ";3;yes;no;54;female;yes;;no;
apzvrxiaap22;2025-04-23;training;1;11;Western gray kangaroo;41.png;1;700;670;7579,000000190747;3;476365,800;481937;7, 0, 0;481937, 482211, 482359;"I found it really interesting to see how bad my memory was!  In the end I tried to memorise a few and then judge all the others based on the few that I had ""tried"" to remember.  ";3;yes;no;54;female;yes;;no;
apzvrxiaap22;2025-04-23;training;2;0;Stump-tailed macaque;59.png;1;1365;1186;17376,000000190747;3;488214,300;500689;1, 3, 6, 5;500689, 502450, 503098, 503362;"I found it really interesting to see how bad my memory was!  In the end I tried to memorise a few and then judge all the others based on the few that I had ""tried"" to remember.  ";3;yes;no;54;female;yes;;no;
apzvrxiaap22;2025-04-23;training;2;1;Nutria;76.png;1;125;152;6397,799999999988;3;508661,700;511024;1, 2, 5;511024, 511120, 511544;"I found it really interesting to see how bad my memory was!  In the end I tried to memorise a few and then judge all the others based on the few that I had ""tried"" to remember.  ";3;yes;no;54;female;yes;;no;
apzvrxiaap22;2025-04-23;training;2;2;Red panda;09.png;1;365;550;6754,700000000012;3;518180,800;522896;3, 6, 5;522896, 523209, 523459;"I found it really interesting to see how bad my memory was!  In the end I tried to memorise a few and then judge all the others based on the few that I had ""tried"" to remember.  ";3;yes;no;54;female;yes;;no;
apzvrxiaap22;2025-04-23;training;2;3;Bottlenosed dolphin;38.png;1;700;2831;12462,400000095367;3;528413,000;538857;7, 0, 0;538857, 539442, 539616;"I found it really interesting to see how bad my memory was!  In the end I tried to memorise a few and then judge all the others based on the few that I had ""tried"" to remember.  ";3;yes;no;54;female;yes;;no;
apzvrxiaap22;2025-04-23;training;2;4;Sugar glider;43.png;1;125;236;4861,300000095391;2;543761,100;546694;1, 2, 5;546694, 546882, 547232;"I found it really interesting to see how bad my memory was!  In the end I tried to memorise a few and then judge all the others based on the few that I had ""tried"" to remember.  ";3;yes;no;54;female;yes;;no;
apzvrxiaap22;2025-04-23;training;2;5;African buffalo;10.png;1;1100;1475;51410,200000047684;2;552160,000;596394;1, 0, NA, 1, 0, 0;596394, 597134, 600575, 600909, 601587, 601778;"I found it really interesting to see how bad my memory was!  In the end I tried to memorise a few and then judge all the others based on the few that I had ""tried"" to remember.  ";3;yes;no;54;female;yes;;no;
apzvrxiaap22;2025-04-23;training;2;6;African bush elephant;70.png;1;4900;4018;37545,100000190781;6;606840,200;639625;4, 9, 0, 0;639625, 640453, 640721, 640871;"I found it really interesting to see how bad my memory was!  In the end I tried to memorise a few and then judge all the others based on the few that I had ""tried"" to remember.  ";3;yes;no;54;female;yes;;no;
apzvrxiaap22;2025-04-23;training;2;7;Wart hog;17.png;1;450;578;25891,100000143051;42;648738,000;672054;4, 5, 0;672054, 672232, 672763;"I found it really interesting to see how bad my memory was!  In the end I tried to memorise a few and then judge all the others based on the few that I had ""tried"" to remember.  ";3;yes;no;54;female;yes;;no;
apzvrxiaap22;2025-04-23;training;2;8;Tiger;26.png;1;1700;1268;28326,700000095414;2;678853,200;701088;1, 7, 0, 0;701088, 702179, 703302, 703471;"I found it really interesting to see how bad my memory was!  In the end I tried to memorise a few and then judge all the others based on the few that I had ""tried"" to remember.  ";3;yes;no;54;female;yes;;no;
apzvrxiaap22;2025-04-23;training;2;9;Eurasian red squirrel;77.png;1;150;296;9349,200000143028;2;711202,900;714785;1, 5, 0;714785, 715522, 716092;"I found it really interesting to see how bad my memory was!  In the end I tried to memorise a few and then judge all the others based on the few that I had ""tried"" to remember.  ";3;yes;no;54;female;yes;;no;
apzvrxiaap22;2025-04-23;training;2;10;Western gray kangaroo;41.png;1;700;670;51847,200000143028;8;725348,400;772197;7, 0, 0;772197, 773136, 773293;"I found it really interesting to see how bad my memory was!  In the end I tried to memorise a few and then judge all the others based on the few that I had ""tried"" to remember.  ";3;yes;no;54;female;yes;;no;
apzvrxiaap22;2025-04-23;training;2;11;Slender loris;68.png;1;120;380;6759,100000095321;2;782212,300;786688;1, 2, 0;786688, 787090, 787550;"I found it really interesting to see how bad my memory was!  In the end I tried to memorise a few and then judge all the others based on the few that I had ""tried"" to remember.  ";3;yes;no;54;female;yes;;no;
apzvrxiaap22;2025-04-23;training;3;0;Tiger;26.png;1;1825;1268;31017,400000143098;7;793953,700;819512;1, 8, 2, 5;819512, 821562, 821956, 822443;"I found it really interesting to see how bad my memory was!  In the end I tried to memorise a few and then judge all the others based on the few that I had ""tried"" to remember.  ";3;yes;no;54;female;yes;;no;
apzvrxiaap22;2025-04-23;training;3;1;African bush elephant;70.png;1;2900;4018;8261,800000000047;6;829259,700;834492;2, 9, 0, 0;834492, 834912, 835277, 835459;"I found it really interesting to see how bad my memory was!  In the end I tried to memorise a few and then judge all the others based on the few that I had ""tried"" to remember.  ";3;yes;no;54;female;yes;;no;
apzvrxiaap22;2025-04-23;training;3;2;Western gray kangaroo;41.png;1;1900;670;9515,800000000047;12;850303,700;857453;1, 9, 0, 0;857453, 857983, 858222, 858375;"I found it really interesting to see how bad my memory was!  In the end I tried to memorise a few and then judge all the others based on the few that I had ""tried"" to remember.  ";3;yes;no;54;female;yes;;no;
apzvrxiaap22;2025-04-23;training;3;3;Bottlenosed dolphin;38.png;1;4000;2831;38325,200000095414;6;866695,200;900109;2, NA, 4, 0, 0, 0;900109, 900889, 901547, 902151, 902613, 902861;"I found it really interesting to see how bad my memory was!  In the end I tried to memorise a few and then judge all the others based on the few that I had ""tried"" to remember.  ";3;yes;no;54;female;yes;;no;
apzvrxiaap22;2025-04-23;training;3;4;Sugar glider;43.png;1;125;236;8290,600000143051;5;917507,000;921975;1, 2, 5;921975, 923407, 923922;"I found it really interesting to see how bad my memory was!  In the end I tried to memorise a few and then judge all the others based on the few that I had ""tried"" to remember.  ";3;yes;no;54;female;yes;;no;
apzvrxiaap22;2025-04-23;training;3;5;Eurasian red squirrel;77.png;1;230;296;9084,500000143074;9;932026,600;939018;2, 3, 0;939018, 939257, 939696;"I found it really interesting to see how bad my memory was!  In the end I tried to memorise a few and then judge all the others based on the few that I had ""tried"" to remember.  ";3;yes;no;54;female;yes;;no;
apzvrxiaap22;2025-04-23;training;3;6;Stump-tailed macaque;59.png;1;900;1186;11656,199999999953;2;947944,300;954578;9, 0, 0;954578, 955638, 955819;"I found it really interesting to see how bad my memory was!  In the end I tried to memorise a few and then judge all the others based on the few that I had ""tried"" to remember.  ";3;yes;no;54;female;yes;;no;
apzvrxiaap22;2025-04-23;training;3;7;African buffalo;10.png;1;2900;1475;12821,200000047684;3;967812,000;971893;4, 0, 0, 0, 2, 9, 0, 0;971893, 972249, 972425, 972570, 977927, 978324, 978541, 978684;"I found it really interesting to see how bad my memory was!  In the end I tried to memorise a few and then judge all the others based on the few that I had ""tried"" to remember.  ";3;yes;no;54;female;yes;;no;
apzvrxiaap22;2025-04-23;training;3;8;Nutria;76.png;1;125;152;8014,600000190781;19;988392,700;992957;1, 2, 5;992957, 993167, 994069;"I found it really interesting to see how bad my memory was!  In the end I tried to memorise a few and then judge all the others based on the few that I had ""tried"" to remember.  ";3;yes;no;54;female;yes;;no;
apzvrxiaap22;2025-04-23;training;3;9;Slender loris;68.png;1;236;380;8419,400000190712;2;1003157,400;1005873;2, 3, 6;1005873, 1006341, 1006896;"I found it really interesting to see how bad my memory was!  In the end I tried to memorise a few and then judge all the others based on the few that I had ""tried"" to remember.  ";3;yes;no;54;female;yes;;no;
apzvrxiaap22;2025-04-23;training;3;10;Wart hog;17.png;1;900;578;37789,600000190781;12;1018888,700;1049989;9, 0, 0;1049989, 1050328, 1050495;"I found it really interesting to see how bad my memory was!  In the end I tried to memorise a few and then judge all the others based on the few that I had ""tried"" to remember.  ";3;yes;no;54;female;yes;;no;
apzvrxiaap22;2025-04-23;training;3;11;Red panda;09.png;1;280;550;10055,800000190735;6;1065590,000;1072912;2, 8, 0;1072912, 1073424, 1073870;"I found it really interesting to see how bad my memory was!  In the end I tried to memorise a few and then judge all the others based on the few that I had ""tried"" to remember.  ";3;yes;no;54;female;yes;;no;
apzvrxiaap22;2025-04-23;training;4;0;Red panda;09.png;1;550;550;12744,400000190828;2;1082854,400;1090563;5, 5, 0;1090563, 1090883, 1091589;"I found it really interesting to see how bad my memory was!  In the end I tried to memorise a few and then judge all the others based on the few that I had ""tried"" to remember.  ";3;yes;no;54;female;yes;;no;
apzvrxiaap22;2025-04-23;training;4;1;Nutria;76.png;1;150;152;14054,400000095367;2;1099798,000;1110368;1, 5, 0;1110368, 1111141, 1112016;"I found it really interesting to see how bad my memory was!  In the end I tried to memorise a few and then judge all the others based on the few that I had ""tried"" to remember.  ";3;yes;no;54;female;yes;;no;
apzvrxiaap22;2025-04-23;training;4;2;Eurasian red squirrel;77.png;1;200;296;16892,100000095321;2;1117411,800;1123100;2, 0, 0;1123100, 1124489, 1124652;"I found it really interesting to see how bad my memory was!  In the end I tried to memorise a few and then judge all the others based on the few that I had ""tried"" to remember.  ";3;yes;no;54;female;yes;;no;
apzvrxiaap22;2025-04-23;training;4;3;Sugar glider;43.png;1;136;236;11637,800000190735;2;1137942,500;1144100;1, 3, 6;1144100, 1144568, 1145224;"I found it really interesting to see how bad my memory was!  In the end I tried to memorise a few and then judge all the others based on the few that I had ""tried"" to remember.  ";3;yes;no;54;female;yes;;no;
apzvrxiaap22;2025-04-23;training;4;4;Slender loris;68.png;1;485;380;20141,700000047684;2;1153347,500;1161251;4, 8, 0, 8, 5;1161251, 1161803, 1162224, 1171473, 1171960;"I found it really interesting to see how bad my memory was!  In the end I tried to memorise a few and then judge all the others based on the few that I had ""tried"" to remember.  ";3;yes;no;54;female;yes;;no;
apzvrxiaap22;2025-04-23;training;4;5;Western gray kangaroo;41.png;1;600;670;9353,100000095321;2;1177244,300;1183939;6, 0, 0;1183939, 1184364, 1184525;"I found it really interesting to see how bad my memory was!  In the end I tried to memorise a few and then judge all the others based on the few that I had ""tried"" to remember.  ";3;yes;no;54;female;yes;;no;
apzvrxiaap22;2025-04-23;training;4;6;African bush elephant;70.png;1;4100;4018;11745,600000047591;2;1190192,600;1198694;4, 1, 0, 0;1198694, 1199035, 1199700, 1199876;"I found it really interesting to see how bad my memory was!  In the end I tried to memorise a few and then judge all the others based on the few that I had ""tried"" to remember.  ";3;yes;no;54;female;yes;;no;
apzvrxiaap22;2025-04-23;training;4;7;Wart hog;17.png;1;400;578;12897,500000047730;2;1205807,200;1214281;4, 0, 0;1214281, 1214691, 1214845;"I found it really interesting to see how bad my memory was!  In the end I tried to memorise a few and then judge all the others based on the few that I had ""tried"" to remember.  ";3;yes;no;54;female;yes;;no;
apzvrxiaap22;2025-04-23;training;4;8;African buffalo;10.png;1;1500;1475;12153,100000190781;2;1234473,700;1242996;1, 5, 0, 0;1242996, 1243824, 1244222, 1244410;"I found it really interesting to see how bad my memory was!  In the end I tried to memorise a few and then judge all the others based on the few that I had ""tried"" to remember.  ";3;yes;no;54;female;yes;;no;
apzvrxiaap22;2025-04-23;training;4;9;Tiger;26.png;1;1890;1268;22452,100000000093;14;1250504,900;1267229;1, 8, 9, 0;1267229, 1268119, 1268640, 1269426;"I found it really interesting to see how bad my memory was!  In the end I tried to memorise a few and then judge all the others based on the few that I had ""tried"" to remember.  ";3;yes;no;54;female;yes;;no;
apzvrxiaap22;2025-04-23;training;4;10;Bottlenosed dolphin;38.png;1;2500;2831;15898,699999999953;2;1281574,300;1294280;2, 5, 0, 0;1294280, 1294810, 1295357, 1295516;"I found it really interesting to see how bad my memory was!  In the end I tried to memorise a few and then judge all the others based on the few that I had ""tried"" to remember.  ";3;yes;no;54;female;yes;;no;
apzvrxiaap22;2025-04-23;training;4;11;Stump-tailed macaque;59.png;1;900;1186;11512,800000095274;2;1300955,100;1308106;9, 0, 0;1308106, 1308329, 1308462;"I found it really interesting to see how bad my memory was!  In the end I tried to memorise a few and then judge all the others based on the few that I had ""tried"" to remember.  ";3;yes;no;54;female;yes;;no;
apzvrxiaap22;2025-04-23;training;5;0;Nutria;76.png;1;152;152;12284,500000047730;2;1317019,700;1322430;1, 5, 2;1322430, 1323428, 1323813;"I found it really interesting to see how bad my memory was!  In the end I tried to memorise a few and then judge all the others based on the few that I had ""tried"" to remember.  ";3;yes;no;54;female;yes;;no;
apzvrxiaap22;2025-04-23;training;5;1;Sugar glider;43.png;1;130;236;14050,400000095367;55;1333201,000;1341486;1, 3, 0;1341486, 1342274, 1342635;"I found it really interesting to see how bad my memory was!  In the end I tried to memorise a few and then judge all the others based on the few that I had ""tried"" to remember.  ";3;yes;no;54;female;yes;;no;
apzvrxiaap22;2025-04-23;training;5;2;African bush elephant;70.png;1;4020;4018;14973,800000143005;2;1351092,300;1356671;4, 0, 0, NA, 2, 0;1356671, 1357018, 1357184, 1358868, 1360779, 1361367;"I found it really interesting to see how bad my memory was!  In the end I tried to memorise a few and then judge all the others based on the few that I had ""tried"" to remember.  ";3;yes;no;54;female;yes;;no;
apzvrxiaap22;2025-04-23;training;5;3;African buffalo;10.png;1;1500;1475;9896,300000143005;2;1369723,300;1374342;1, 5, 0, 0;1374342, 1375082, 1375458, 1375630;"I found it really interesting to see how bad my memory was!  In the end I tried to memorise a few and then judge all the others based on the few that I had ""tried"" to remember.  ";3;yes;no;54;female;yes;;no;
apzvrxiaap22;2025-04-23;training;5;4;Red panda;09.png;1;500;550;12367,700000143144;2;1383121,400;1389155;5, 0, 0;1389155, 1389746, 1389928;"I found it really interesting to see how bad my memory was!  In the end I tried to memorise a few and then judge all the others based on the few that I had ""tried"" to remember.  ";3;yes;no;54;female;yes;;no;
apzvrxiaap22;2025-04-23;training;5;5;Slender loris;68.png;1;380;380;15465,300000000047;2;1399202,700;1409887;3, 8, 0;1409887, 1410529, 1410872;"I found it really interesting to see how bad my memory was!  In the end I tried to memorise a few and then judge all the others based on the few that I had ""tried"" to remember.  ";3;yes;no;54;female;yes;;no;
apzvrxiaap22;2025-04-23;training;5;6;Western gray kangaroo;41.png;1;700;670;9394,300000143005;2;1418651,300;1423374;7, 0, 0;1423374, 1423859, 1423988;"I found it really interesting to see how bad my memory was!  In the end I tried to memorise a few and then judge all the others based on the few that I had ""tried"" to remember.  ";3;yes;no;54;female;yes;;no;
apzvrxiaap22;2025-04-23;training;5;7;Stump-tailed macaque;59.png;1;1200;1186;11173,000000047730;2;1431633,200;1437187;1, 2, 0, 0;1437187, 1437742, 1438277, 1438442;"I found it really interesting to see how bad my memory was!  In the end I tried to memorise a few and then judge all the others based on the few that I had ""tried"" to remember.  ";3;yes;no;54;female;yes;;no;
apzvrxiaap22;2025-04-23;training;5;8;Eurasian red squirrel;77.png;1;290;296;12106,000000047730;35;1446614,700;1453715;2, 9, 0;1453715, 1454109, 1454334;"I found it really interesting to see how bad my memory was!  In the end I tried to memorise a few and then judge all the others based on the few that I had ""tried"" to remember.  ";3;yes;no;54;female;yes;;no;
apzvrxiaap22;2025-04-23;training;5;9;Wart hog;17.png;1;568;578;13702,800000143005;3;1462362,300;1468744;5, 6, 8;1468744, 1471138, 1471302;"I found it really interesting to see how bad my memory was!  In the end I tried to memorise a few and then judge all the others based on the few that I had ""tried"" to remember.  ";3;yes;no;54;female;yes;;no;
apzvrxiaap22;2025-04-23;training;5;10;Tiger;26.png;1;1500;1268;11120,500000047730;39;1479746,200;1485268;1, 5, 0, 0;1485268, 1485759, 1486114, 1486291;"I found it really interesting to see how bad my memory was!  In the end I tried to memorise a few and then judge all the others based on the few that I had ""tried"" to remember.  ";3;yes;no;54;female;yes;;no;
apzvrxiaap22;2025-04-23;training;5;11;Bottlenosed dolphin;38.png;1;3800;2831;15885,400000047637;1;1494961,300;1499475;3, 0, 0, 0, 8;1499475, 1499880, 1500056, 1500274, 1506604;"I found it really interesting to see how bad my memory was!  In the end I tried to memorise a few and then judge all the others based on the few that I had ""tried"" to remember.  ";3;yes;no;54;female;yes;;no;
apzvrxiaap22;2025-04-23;training;6;0;Tiger;26.png;1;1268;1268;10707,399999999907;2;1515675,100;1522010;1, 2, 6, 8;1522010, 1522206, 1522972, 1523201;"I found it really interesting to see how bad my memory was!  In the end I tried to memorise a few and then judge all the others based on the few that I had ""tried"" to remember.  ";3;yes;no;54;female;yes;;no;
apzvrxiaap22;2025-04-23;training;6;1;Nutria;76.png;1;152;152;10056,300000143005;10;1530478,300;1535766;1, 5, 2;1535766, 1536582, 1537038;"I found it really interesting to see how bad my memory was!  In the end I tried to memorise a few and then judge all the others based on the few that I had ""tried"" to remember.  ";3;yes;no;54;female;yes;;no;
apzvrxiaap22;2025-04-23;training;6;2;Bottlenosed dolphin;38.png;1;3800;2831;15804,600000047591;2;1544543,100;1551696;3, 8, 0, 0;1551696, 1554377, 1555202, 1555373;"I found it really interesting to see how bad my memory was!  In the end I tried to memorise a few and then judge all the others based on the few that I had ""tried"" to remember.  ";3;yes;no;54;female;yes;;no;
apzvrxiaap22;2025-04-23;training;6;3;Sugar glider;43.png;1;263;236;10123,899999999907;2;1564024,100;1568293;2, 6, 3;1568293, 1569847, 1570150;"I found it really interesting to see how bad my memory was!  In the end I tried to memorise a few and then judge all the others based on the few that I had ""tried"" to remember.  ";3;yes;no;54;female;yes;;no;
apzvrxiaap22;2025-04-23;training;6;4;Western gray kangaroo;41.png;1;760;670;17519,900000047637;3;1578138,800;1584709;7, 0, 0, 6;1584709, 1585256, 1585414, 1593883;"I found it really interesting to see how bad my memory was!  In the end I tried to memorise a few and then judge all the others based on the few that I had ""tried"" to remember.  ";3;yes;no;54;female;yes;;no;
apzvrxiaap22;2025-04-23;training;6;5;Red panda;09.png;1;550;550;12558,700000143144;2;1599105,400;1605201;5, 5, 0;1605201, 1605367, 1605611;"I found it really interesting to see how bad my memory was!  In the end I tried to memorise a few and then judge all the others based on the few that I had ""tried"" to remember.  ";3;yes;no;54;female;yes;;no;
apzvrxiaap22;2025-04-23;training;6;6;African buffalo;10.png;1;1575;1475;10488,100000000093;2;1615253,400;1619543;1, 5, 7, 5;1619543, 1620737, 1621282, 1621561;"I found it really interesting to see how bad my memory was!  In the end I tried to memorise a few and then judge all the others based on the few that I had ""tried"" to remember.  ";3;yes;no;54;female;yes;;no;
apzvrxiaap22;2025-04-23;training;6;7;African bush elephant;70.png;1;4000;4018;13397,500000142958;2;1629485,100;1636471;4, 0, 0, 0;1636471, 1636862, 1637038, 1637482;"I found it really interesting to see how bad my memory was!  In the end I tried to memorise a few and then judge all the others based on the few that I had ""tried"" to remember.  ";3;yes;no;54;female;yes;;no;
apzvrxiaap22;2025-04-23;training;6;8;Wart hog;17.png;1;500;578;13254,100000190781;2;1646382,700;1654504;5, 0, 0;1654504, 1654904, 1655126;"I found it really interesting to see how bad my memory was!  In the end I tried to memorise a few and then judge all the others based on the few that I had ""tried"" to remember.  ";3;yes;no;54;female;yes;;no;
apzvrxiaap22;2025-04-23;training;6;9;Stump-tailed macaque;59.png;1;2000;1186;12712,600000190781;12;1663669,700;1670628;2, 0, 0, 0;1670628, 1671269, 1671451, 1671653;"I found it really interesting to see how bad my memory was!  In the end I tried to memorise a few and then judge all the others based on the few that I had ""tried"" to remember.  ";3;yes;no;54;female;yes;;no;
apzvrxiaap22;2025-04-23;training;6;10;Slender loris;68.png;1;380;380;10452,200000190642;2;1680451,100;1685528;3, 8, 0;1685528, 1687071, 1687612;"I found it really interesting to see how bad my memory was!  In the end I tried to memorise a few and then judge all the others based on the few that I had ""tried"" to remember.  ";3;yes;no;54;female;yes;;no;
apzvrxiaap22;2025-04-23;training;6;11;Eurasian red squirrel;77.png;1;300;296;8480,700000143144;8;1694832,400;1699191;3, 0, 0;1699191, 1699592, 1699779;"I found it really interesting to see how bad my memory was!  In the end I tried to memorise a few and then judge all the others based on the few that I had ""tried"" to remember.  ";3;yes;no;54;female;yes;;no;
apzvrxiaap22;2025-04-23;training;7;0;Sugar glider;43.png;1;263;236;13470,200000190642;2;1708080,600;1715279;2, 6, 3;1715279, 1717239, 1717533;"I found it really interesting to see how bad my memory was!  In the end I tried to memorise a few and then judge all the others based on the few that I had ""tried"" to remember.  ";3;yes;no;54;female;yes;;no;
apzvrxiaap22;2025-04-23;training;7;1;Red panda;09.png;1;550;550;12830,000000142958;5;1725167,600;1732459;5, 5, 0;1732459, 1732611, 1733225;"I found it really interesting to see how bad my memory was!  In the end I tried to memorise a few and then judge all the others based on the few that I had ""tried"" to remember.  ";3;yes;no;54;female;yes;;no;
apzvrxiaap22;2025-04-23;training;7;2;Slender loris;68.png;1;280;380;12051,100000190781;18;1741698,700;1748898;2, 8, 0;1748898, 1749777, 1750016;"I found it really interesting to see how bad my memory was!  In the end I tried to memorise a few and then judge all the others based on the few that I had ""tried"" to remember.  ";3;yes;no;54;female;yes;;no;
apzvrxiaap22;2025-04-23;training;7;3;Eurasian red squirrel;77.png;1;280;296;13959,200000143144;26;1757313,400;1764856;2, 8, 0;1764856, 1766162, 1766782;"I found it really interesting to see how bad my memory was!  In the end I tried to memorise a few and then judge all the others based on the few that I had ""tried"" to remember.  ";3;yes;no;54;female;yes;;no;
apzvrxiaap22;2025-04-23;training;7;4;Bottlenosed dolphin;38.png;1;2800;2831;9861,400000047637;2;1775077,800;1780048;2, 8, 0, 0;1780048, 1780429, 1780760, 1780937;"I found it really interesting to see how bad my memory was!  In the end I tried to memorise a few and then judge all the others based on the few that I had ""tried"" to remember.  ";3;yes;no;54;female;yes;;no;
apzvrxiaap22;2025-04-23;training;7;5;Western gray kangaroo;41.png;1;700;670;8972,800000047777;24;1789050,900;1793534;7, 0, 0;1793534, 1793796, 1794002;"I found it really interesting to see how bad my memory was!  In the end I tried to memorise a few and then judge all the others based on the few that I had ""tried"" to remember.  ";3;yes;no;54;female;yes;;no;
apzvrxiaap22;2025-04-23;training;7;6;African bush elephant;70.png;1;4018;4018;15433,800000047777;13;1801882,900;1808902;4, 0, 1, 8;1808902, 1809696, 1812945, 1813605;"I found it really interesting to see how bad my memory was!  In the end I tried to memorise a few and then judge all the others based on the few that I had ""tried"" to remember.  ";3;yes;no;54;female;yes;;no;
apzvrxiaap22;2025-04-23;training;7;7;Stump-tailed macaque;59.png;1;1280;1186;15976,300000190735;2;1821163,500;1829511;1, 2, 8, 0;1829511, 1830737, 1831416, 1831800;"I found it really interesting to see how bad my memory was!  In the end I tried to memorise a few and then judge all the others based on the few that I had ""tried"" to remember.  ";3;yes;no;54;female;yes;;no;
apzvrxiaap22;2025-04-23;training;7;8;Nutria;76.png;1;152;152;11845,900000047637;14;1841243,800;1847248;1, 5, 2;1847248, 1847951, 1848254;"I found it really interesting to see how bad my memory was!  In the end I tried to memorise a few and then judge all the others based on the few that I had ""tried"" to remember.  ";3;yes;no;54;female;yes;;no;
apzvrxiaap22;2025-04-23;training;7;9;African buffalo;10.png;1;1400;1475;13310,400000143098;2;1856595,200;1861129;1, 4, 0, 0;1861129, 1864920, 1865884, 1866070;"I found it really interesting to see how bad my memory was!  In the end I tried to memorise a few and then judge all the others based on the few that I had ""tried"" to remember.  ";3;yes;no;54;female;yes;;no;
apzvrxiaap22;2025-04-23;training;7;10;Wart hog;17.png;1;578;578;10452,200000047684;26;1873760,000;1878860;5, 7, 8;1878860, 1879491, 1880406;"I found it really interesting to see how bad my memory was!  In the end I tried to memorise a few and then judge all the others based on the few that I had ""tried"" to remember.  ";3;yes;no;54;female;yes;;no;
apzvrxiaap22;2025-04-23;training;7;11;Tiger;26.png;1;1308;1268;17010,100000047591;15;1888024,600;1893376;1, 3, 0, 8;1893376, 1896226, 1898760, 1901634;"I found it really interesting to see how bad my memory was!  In the end I tried to memorise a few and then judge all the others based on the few that I had ""tried"" to remember.  ";3;yes;no;54;female;yes;;no;
apzvrxiaap22;2025-04-23;testing;NA;0;Proboscis monkey;60.png;0;1200;1460;20421,900000190828;2;1974789,900;1989669;1, 2, 0, 0;1989669, 1990372, 1990805, 1991002;"I found it really interesting to see how bad my memory was!  In the end I tried to memorise a few and then judge all the others based on the few that I had ""tried"" to remember.  ";3;yes;no;54;female;yes;;no;
apzvrxiaap22;2025-04-23;testing;NA;1;White-tufted-ear marmoset;54.png;0;400;477;22478,702000047779;9;1995220,998;2015268;4, 0, 0;2015268, 2015982, 2016126;"I found it really interesting to see how bad my memory was!  In the end I tried to memorise a few and then judge all the others based on the few that I had ""tried"" to remember.  ";3;yes;no;54;female;yes;;no;
apzvrxiaap22;2025-04-23;testing;NA;2;Stump-tailed macaque;59.png;1;1200;1186;14541,800000000047;2;2017717,700;2026361;1, 2, 0, 0;2026361, 2026917, 2027343, 2027517;"I found it really interesting to see how bad my memory was!  In the end I tried to memorise a few and then judge all the others based on the few that I had ""tried"" to remember.  ";3;yes;no;54;female;yes;;no;
apzvrxiaap22;2025-04-23;testing;NA;3;Japanese macaque;61.png;0;1200;1483;7283,800000190735;2;2032276,000;2034421;1, 2, 0, 0;2034421, 2034643, 2035336, 2035494;"I found it really interesting to see how bad my memory was!  In the end I tried to memorise a few and then judge all the others based on the few that I had ""tried"" to remember.  ";3;yes;no;54;female;yes;;no;
apzvrxiaap22;2025-04-23;testing;NA;4;Tasmanian devil;40.png;0;380;730;13217,176000095438;2;2039558,724;2047117;3, 8, 0;2047117, 2048007, 2048506;"I found it really interesting to see how bad my memory was!  In the end I tried to memorise a few and then judge all the others based on the few that I had ""tried"" to remember.  ";3;yes;no;54;female;yes;;no;
apzvrxiaap22;2025-04-23;testing;NA;5;White rhinoceros;52.png;0;2000;1643;11279,344000142999;11;2052773,756;2058315;2, 0, 0, 0;2058315, 2058912, 2059118, 2059585;"I found it really interesting to see how bad my memory was!  In the end I tried to memorise a few and then judge all the others based on the few that I had ""tried"" to remember.  ";3;yes;no;54;female;yes;;no;
apzvrxiaap22;2025-04-23;testing;NA;6;Spotted hyena;29.png;0;1000;1095;21951,000000000000;43;2064072,000;2080866;1, 0, 0, 0;2080866, 2081598, 2081769, 2081916;"I found it really interesting to see how bad my memory was!  In the end I tried to memorise a few and then judge all the others based on the few that I had ""tried"" to remember.  ";3;yes;no;54;female;yes;;no;
apzvrxiaap22;2025-04-23;testing;NA;7;Humpback whale;37.png;0;5500;1643;8432,400000047637;48;2086035,800;2091159;5, 5, 0, 0;2091159, 2091592, 2092389, 2092546;"I found it really interesting to see how bad my memory was!  In the end I tried to memorise a few and then judge all the others based on the few that I had ""tried"" to remember.  ";3;yes;no;54;female;yes;;no;
apzvrxiaap22;2025-04-23;testing;NA;8;European rabbit;47.png;0;150;730;13559,700000095414;45;2094469,700;2101713;1, 5, 0;2101713, 2103062, 2103432;"I found it really interesting to see how bad my memory was!  In the end I tried to memorise a few and then judge all the others based on the few that I had ""tried"" to remember.  ";3;yes;no;54;female;yes;;no;
apzvrxiaap22;2025-04-23;testing;NA;9;Ibex;05.png;0;2000;797;9975,484000095166;19;2108034,916;2112259;2, 0, 0, 0;2112259, 2112850, 2113028, 2113404;"I found it really interesting to see how bad my memory was!  In the end I tried to memorise a few and then judge all the others based on the few that I had ""tried"" to remember.  ";3;yes;no;54;female;yes;;no;
apzvrxiaap22;2025-04-23;testing;NA;10;Wild boar;18.png;0;600;334;13517,374000190757;4;2118016,926;2125336;6, 0, 0;2125336, 2125987, 2126148;"I found it really interesting to see how bad my memory was!  In the end I tried to memorise a few and then judge all the others based on the few that I had ""tried"" to remember.  ";3;yes;no;54;female;yes;;no;
apzvrxiaap22;2025-04-23;testing;NA;11;Cheetah;23.png;0;1200;456;12725,046000095550;2;2131531,854;2138834;1, 2, 0, 0;2138834, 2139040, 2139819, 2139982;"I found it really interesting to see how bad my memory was!  In the end I tried to memorise a few and then judge all the others based on the few that I had ""tried"" to remember.  ";3;yes;no;54;female;yes;;no;
apzvrxiaap22;2025-04-23;testing;NA;12;Orangutan;64.png;0;1500;2555;21175,100000095554;3;2144263,300;2152470;2, 0, 0, 0, 1, 5, 0, 0;2152470, 2152905, 2153090, 2153594, 2159480, 2160180, 2160658, 2160807;"I found it really interesting to see how bad my memory was!  In the end I tried to memorise a few and then judge all the others based on the few that I had ""tried"" to remember.  ";3;yes;no;54;female;yes;;no;
apzvrxiaap22;2025-04-23;testing;NA;13;Lion;24.png;0;1300;1095;13679,900000190828;2;2165445,400;2172344;1, 3, 0, 0;2172344, 2172831, 2173586, 2173755;"I found it really interesting to see how bad my memory was!  In the end I tried to memorise a few and then judge all the others based on the few that I had ""tried"" to remember.  ";3;yes;no;54;female;yes;;no;
apzvrxiaap22;2025-04-23;testing;NA;14;Tufted capu;56.png;0;1500;1703;19209,104000047781;14;2179127,096;2186679;1, 5, 0, 0;2186679, 2189252, 2190038, 2190204;"I found it really interesting to see how bad my memory was!  In the end I tried to memorise a few and then judge all the others based on the few that I had ""tried"" to remember.  ";3;yes;no;54;female;yes;;no;
apzvrxiaap22;2025-04-23;testing;NA;15;Raccoon dog;21.png;0;600;304;16009,300000143237;26;2198357,800;2208488;6, 0, 0;2208488, 2209099, 2209258;"I found it really interesting to see how bad my memory was!  In the end I tried to memorise a few and then judge all the others based on the few that I had ""tried"" to remember.  ";3;yes;no;54;female;yes;;no;
apzvrxiaap22;2025-04-23;testing;NA;16;Bottlenosed dolphin;38.png;1;2500;2831;12145,840000143275;5;2214372,760;2220196;2, 5, 0, 0;2220196, 2220784, 2221421, 2221576;"I found it really interesting to see how bad my memory was!  In the end I tried to memorise a few and then judge all the others based on the few that I had ""tried"" to remember.  ";3;yes;no;54;female;yes;;no;
apzvrxiaap22;2025-04-23;testing;NA;17;Dugong;79.png;0;1900;3470;10374,100000143051;31;2226537,500;2229159;2, NA, 1, 9, 0, 0;2229159, 2230647, 2231211, 2231699, 2231941, 2232081;"I found it really interesting to see how bad my memory was!  In the end I tried to memorise a few and then judge all the others based on the few that I had ""tried"" to remember.  ";3;yes;no;54;female;yes;;no;
apzvrxiaap22;2025-04-23;testing;NA;18;Brown lemur;65.png;0;600;509;15017,900000142865;1;2236936,200;2239926;6, 0, 0;2239926, 2240366, 2240522;"I found it really interesting to see how bad my memory was!  In the end I tried to memorise a few and then judge all the others based on the few that I had ""tried"" to remember.  ";3;yes;no;54;female;yes;;no;
apzvrxiaap22;2025-04-23;testing;NA;19;African wild dog;20.png;0;650;639;14356,800000095274;43;2251967,600;2261603;6, 5, 0;2261603, 2261830, 2262213;"I found it really interesting to see how bad my memory was!  In the end I tried to memorise a few and then judge all the others based on the few that I had ""tried"" to remember.  ";3;yes;no;54;female;yes;;no;
apzvrxiaap22;2025-04-23;testing;NA;20;Harbor seal;33.png;0;490;1095;12249,400000142865;7;2266350,700;2272340;4, 9, 0;2272340, 2272751, 2272950;"I found it really interesting to see how bad my memory was!  In the end I tried to memorise a few and then judge all the others based on the few that I had ""tried"" to remember.  ";3;yes;no;54;female;yes;;no;
apzvrxiaap22;2025-04-23;testing;NA;21;Quagga;51.png;0;900;900;12152,400000190828;13;2278625,900;2285688;9, 0, 0;2285688, 2285992, 2286126;"I found it really interesting to see how bad my memory was!  In the end I tried to memorise a few and then judge all the others based on the few that I had ""tried"" to remember.  ";3;yes;no;54;female;yes;;no;
apzvrxiaap22;2025-04-23;testing;NA;22;Sea otter;30.png;0;600;974;10698,500000142958;2;2290791,600;2296551;6, 0, 0;2296551, 2296907, 2297082;"I found it really interesting to see how bad my memory was!  In the end I tried to memorise a few and then judge all the others based on the few that I had ""tried"" to remember.  ";3;yes;no;54;female;yes;;no;
apzvrxiaap22;2025-04-23;testing;NA;23;Llama;07.png;0;700;800;12846,212000047788;3;2301490,488;2309365;7, 0, 0;2309365, 2309896, 2310044;"I found it really interesting to see how bad my memory was!  In the end I tried to memorise a few and then judge all the others based on the few that I had ""tried"" to remember.  ";3;yes;no;54;female;yes;;no;
apzvrxiaap22;2025-04-23;testing;NA;24;Leopard;25.png;0;1250;937;12149,299999999814;37;2314355,200;2318907;1, 2, 5, 0;2318907, 2320700, 2321913, 2322612;"I found it really interesting to see how bad my memory was!  In the end I tried to memorise a few and then judge all the others based on the few that I had ""tried"" to remember.  ";3;yes;no;54;female;yes;;no;
apzvrxiaap22;2025-04-23;testing;NA;25;Giant anteater;04.png;0;250;1186;8742,800000047777;2;2326520,400;2330213;2, 5, 0;2330213, 2330751, 2331277;"I found it really interesting to see how bad my memory was!  In the end I tried to memorise a few and then judge all the others based on the few that I had ""tried"" to remember.  ";3;yes;no;54;female;yes;;no;
apzvrxiaap22;2025-04-23;testing;NA;26;Brush-tailed possum;44.png;0;300;315;7718,200000190642;2;2335269,100;2338162;3, 0, 0;2338162, 2338740, 2339002;"I found it really interesting to see how bad my memory was!  In the end I tried to memorise a few and then judge all the others based on the few that I had ""tried"" to remember.  ";3;yes;no;54;female;yes;;no;
apzvrxiaap22;2025-04-23;testing;NA;27;Sugar glider;43.png;1;230;236;16332,106000190601;3;2342985,194;2353830;2, 3, 0;2353830, 2355307, 2355675;"I found it really interesting to see how bad my memory was!  In the end I tried to memorise a few and then judge all the others based on the few that I had ""tried"" to remember.  ";3;yes;no;54;female;yes;;no;
apzvrxiaap22;2025-04-23;testing;NA;28;Polar bear;36.png;0;1000;1734;10843,800000095274;17;2359338,100;2365123;1, 0, 0, 0;2365123, 2365752, 2365929, 2366296;"I found it really interesting to see how bad my memory was!  In the end I tried to memorise a few and then judge all the others based on the few that I had ""tried"" to remember.  ";3;yes;no;54;female;yes;;no;
apzvrxiaap22;2025-04-23;testing;NA;29;Siberian chipmunk;78.png;0;200;350;11543,148000047542;2;2370187,052;2377411;2, 0, 0;2377411, 2377811, 2377987;"I found it really interesting to see how bad my memory was!  In the end I tried to memorise a few and then judge all the others based on the few that I had ""tried"" to remember.  ";3;yes;no;54;female;yes;;no;
apzvrxiaap22;2025-04-23;testing;NA;30;Guinea pig;72.png;0;90;66;7633,567999999970;37;2381735,432;2385138;9, 0;2385138, 2385312;"I found it really interesting to see how bad my memory was!  In the end I tried to memorise a few and then judge all the others based on the few that I had ""tried"" to remember.  ";3;yes;no;54;female;yes;;no;
apzvrxiaap22;2025-04-23;testing;NA;31;Mountain hare;46.png;0;100;266;10377,936000047717;25;2389367,764;2394904;1, 0, 0;2394904, 2395387, 2395554;"I found it really interesting to see how bad my memory was!  In the end I tried to memorise a few and then judge all the others based on the few that I had ""tried"" to remember.  ";3;yes;no;54;female;yes;;no;
apzvrxiaap22;2025-04-23;testing;NA;32;Quokka;42.png;0;200;252;6954,138000095263;29;2399749,762;2402845;2, 0, 0;2402845, 2403224, 2403380;"I found it really interesting to see how bad my memory was!  In the end I tried to memorise a few and then judge all the others based on the few that I had ""tried"" to remember.  ";3;yes;no;54;female;yes;;no;
apzvrxiaap22;2025-04-23;testing;NA;33;Long-tailed field mouse;75.png;0;90;71;8574,700000143144;11;2406731,900;2410908;9, 0;2410908, 2411082;"I found it really interesting to see how bad my memory was!  In the end I tried to memorise a few and then judge all the others based on the few that I had ""tried"" to remember.  ";3;yes;no;54;female;yes;;no;
apzvrxiaap22;2025-04-23;testing;NA;34;Mule deer;13.png;0;365;478;11303,900000095367;2;2415329,500;2420557;3, 6, 5;2420557, 2422408, 2423263;"I found it really interesting to see how bad my memory was!  In the end I tried to memorise a few and then judge all the others based on the few that I had ""tried"" to remember.  ";3;yes;no;54;female;yes;;no;
apzvrxiaap22;2025-04-23;testing;NA;35;Basketball;AC.png;0;999;999;12774,000000142958;30;2426644,600;2428620;9, 9, 9;2428620, 2428910, 2429128;"I found it really interesting to see how bad my memory was!  In the end I tried to memorise a few and then judge all the others based on the few that I had ""tried"" to remember.  ";3;yes;no;54;female;yes;;no;
apzvrxiaap22;2025-04-23;testing;NA;36;Midas tamarin;55.png;0;400;608;10509,300000143237;26;2439426,300;2445591;4, 0, 0;2445591, 2446457, 2446594;"I found it really interesting to see how bad my memory was!  In the end I tried to memorise a few and then judge all the others based on the few that I had ""tried"" to remember.  ";3;yes;no;54;female;yes;;no;
apzvrxiaap22;2025-04-23;testing;NA;37;white-faced saki;69.png;0;370;775;9056,100000095554;2;2449958,300;2453180;3, 7, 0;2453180, 2454449, 2455061;"I found it really interesting to see how bad my memory was!  In the end I tried to memorise a few and then judge all the others based on the few that I had ""tried"" to remember.  ";3;yes;no;54;female;yes;;no;
apzvrxiaap22;2025-04-23;testing;NA;38;Australian tiger cat;39.png;0;380;340;9087,400000047870;2;2459023,800;2463288;3, 8, 0;2463288, 2464111, 2464609;"I found it really interesting to see how bad my memory was!  In the end I tried to memorise a few and then judge all the others based on the few that I had ""tried"" to remember.  ";3;yes;no;54;female;yes;;no;
apzvrxiaap22;2025-04-23;testing;NA;39;Eurasian red squirrel;77.png;1;300;296;9661,500000142958;2;2468122,600;2473644;3, 0, 0;2473644, 2474018, 2474174;"I found it really interesting to see how bad my memory was!  In the end I tried to memorise a few and then judge all the others based on the few that I had ""tried"" to remember.  ";3;yes;no;54;female;yes;;no;
apzvrxiaap22;2025-04-23;testing;NA;40;Brown bear;35.png;0;950;1313;19858,248000095598;14;2477788,652;2487653;9, 0, 0, 5;2487653, 2488305, 2488472, 2493939;"I found it really interesting to see how bad my memory was!  In the end I tried to memorise a few and then judge all the others based on the few that I had ""tried"" to remember.  ";3;yes;no;54;female;yes;;no;
apzvrxiaap22;2025-04-23;testing;NA;41;Least weasel;31.png;0;280;120;6877,944000047632;2;2497652,756;2500073;2, 8, 0;2500073, 2500949, 2501300;"I found it really interesting to see how bad my memory was!  In the end I tried to memorise a few and then judge all the others based on the few that I had ""tried"" to remember.  ";3;yes;no;54;female;yes;;no;
apzvrxiaap22;2025-04-23;testing;NA;42;Gorilla;62.png;0;2000;2829;10788,310000190511;2;2504534,990;2509966;2, 0, 0, 0;2509966, 2510442, 2510649, 2511618;"I found it really interesting to see how bad my memory was!  In the end I tried to memorise a few and then judge all the others based on the few that I had ""tried"" to remember.  ";3;yes;no;54;female;yes;;no;
apzvrxiaap22;2025-04-23;testing;NA;43;African bush elephant;70.png;1;4000;4018;11368,900000095367;8;2515333,500;2522257;4, 0, 0, 0;2522257, 2522616, 2522796, 2522946;"I found it really interesting to see how bad my memory was!  In the end I tried to memorise a few and then judge all the others based on the few that I had ""tried"" to remember.  ";3;yes;no;54;female;yes;;no;
apzvrxiaap22;2025-04-23;testing;NA;44;Aoudad;01.png;0;1500;335;12180,704000095371;3;2526715,696;2529266;2, NA, 1, 5, 0, 0;2529266, 2533234, 2533973, 2534828, 2535117, 2535269;"I found it really interesting to see how bad my memory was!  In the end I tried to memorise a few and then judge all the others based on the few that I had ""tried"" to remember.  ";3;yes;no;54;female;yes;;no;
apzvrxiaap22;2025-04-23;testing;NA;45;Hippopotamus;16.png;0;2500;1279;9455,500000047497;2;2538913,700;2542676;2, 5, 0, 0;2542676, 2544085, 2544469, 2544630;"I found it really interesting to see how bad my memory was!  In the end I tried to memorise a few and then judge all the others based on the few that I had ""tried"" to remember.  ";3;yes;no;54;female;yes;;no;
apzvrxiaap22;2025-04-23;testing;NA;46;Thomson's gazelle;06.png;0;1250;365;6887,500000190921;24;2548379,300;2550482;1, 2, 5, 0;2550482, 2550688, 2551351, 2551683;"I found it really interesting to see how bad my memory was!  In the end I tried to memorise a few and then judge all the others based on the few that I had ""tried"" to remember.  ";3;yes;no;54;female;yes;;no;
apzvrxiaap22;2025-04-23;testing;NA;47;Nutria;76.png;1;152;152;10900,100000095554;2;2555278,300;2561936;1, 5, 2;2561936, 2562606, 2562947;"I found it really interesting to see how bad my memory was!  In the end I tried to memorise a few and then judge all the others based on the few that I had ""tried"" to remember.  ";3;yes;no;54;female;yes;;no;
apzvrxiaap22;2025-04-23;testing;NA;48;Meerkat;28.png;0;200;365;6784,000000095461;3;2566193,900;2568433;2, 0, 0;2568433, 2568804, 2568970;"I found it really interesting to see how bad my memory was!  In the end I tried to memorise a few and then judge all the others based on the few that I had ""tried"" to remember.  ";3;yes;no;54;female;yes;;no;
apzvrxiaap22;2025-04-23;testing;NA;49;Short-beaked echidna;49.png;0;200;548;9093,799999999814;2;2572992,700;2575755;3, NA, 2, 0, 0;2575755, 2577491, 2578138, 2578528, 2578693;"I found it really interesting to see how bad my memory was!  In the end I tried to memorise a few and then judge all the others based on the few that I had ""tried"" to remember.  ";3;yes;no;54;female;yes;;no;
apzvrxiaap22;2025-04-23;testing;NA;50;Naked mole-rat;71.png;0;150;228;9799,110000095330;21;2582091,790;2584619;1, 5, 0;2584619, 2585258, 2587880;"I found it really interesting to see how bad my memory was!  In the end I tried to memorise a few and then judge all the others based on the few that I had ""tried"" to remember.  ";3;yes;no;54;female;yes;;no;
apzvrxiaap22;2025-04-23;testing;NA;51;Basketball;AC.png;0;999;999;5367,100000143051;15;2591910,500;2593520;9, 9, 9;2593520, 2593699, 2593845;"I found it really interesting to see how bad my memory was!  In the end I tried to memorise a few and then judge all the others based on the few that I had ""tried"" to remember.  ";3;yes;no;54;female;yes;;no;
apzvrxiaap22;2025-04-23;testing;NA;52;Chimpanzee;63.png;0;1200;3376;10887,240000095218;6;2597283,160;2602817;1, 2, 0, 0;2602817, 2603044, 2603670, 2603840;"I found it really interesting to see how bad my memory was!  In the end I tried to memorise a few and then judge all the others based on the few that I had ""tried"" to remember.  ";3;yes;no;54;female;yes;;no;
apzvrxiaap22;2025-04-23;testing;NA;53;Koala;45.png;0;400;646;10792,100000047591;18;2608189,100;2611394;4, 0, 0;2611394, 2611913, 2612064;"I found it really interesting to see how bad my memory was!  In the end I tried to memorise a few and then judge all the others based on the few that I had ""tried"" to remember.  ";3;yes;no;54;female;yes;;no;
apzvrxiaap22;2025-04-23;testing;NA;54;Dwarf mongoose;27.png;0;200;456;7202,500000190921;2;2618994,300;2621466;2, 0, 0;2621466, 2622034, 2622169;"I found it really interesting to see how bad my memory was!  In the end I tried to memorise a few and then judge all the others based on the few that I had ""tried"" to remember.  ";3;yes;no;54;female;yes;;no;
apzvrxiaap22;2025-04-23;testing;NA;55;American bison;03.png;0;2000;912;10399,704000047874;9;2626195,496;2631949;2, 0, 0, 0;2631949, 2632788, 2632969, 2633108;"I found it really interesting to see how bad my memory was!  In the end I tried to memorise a few and then judge all the others based on the few that I had ""tried"" to remember.  ";3;yes;no;54;female;yes;;no;
apzvrxiaap22;2025-04-23;testing;NA;56;Ring-tailed lemur;67.png;0;1100;595;11769,600000095554;2;2636619,800;2642885;1, 1, 0, 0;2642885, 2643774, 2644508, 2644762;"I found it really interesting to see how bad my memory was!  In the end I tried to memorise a few and then judge all the others based on the few that I had ""tried"" to remember.  ";3;yes;no;54;female;yes;;no;
apzvrxiaap22;2025-04-23;testing;NA;57;De Brazza's monkey;57.png;0;900;1611;8147,400000190828;2;2648405,900;2651289;9, 0, 0;2651289, 2651976, 2652118;"I found it really interesting to see how bad my memory was!  In the end I tried to memorise a few and then judge all the others based on the few that I had ""tried"" to remember.  ";3;yes;no;54;female;yes;;no;
apzvrxiaap22;2025-04-23;testing;NA;58;Basketball;AC.png;0;999;999;5482,400000047870;6;2656571,300;2658040;9, 9, 9;2658040, 2658252, 2658403;"I found it really interesting to see how bad my memory was!  In the end I tried to memorise a few and then judge all the others based on the few that I had ""tried"" to remember.  ";3;yes;no;54;female;yes;;no;
apzvrxiaap22;2025-04-23;testing;NA;59;Bat-eared fox;22.png;0;675;365;9580,900000095367;30;2662065,500;2666207;6, 7, 5;2666207, 2668160, 2668437;"I found it really interesting to see how bad my memory was!  In the end I tried to memorise a few and then judge all the others based on the few that I had ""tried"" to remember.  ";3;yes;no;54;female;yes;;no;
apzvrxiaap22;2025-04-23;testing;NA;60;Giraffe;15.png;0;2000;1278;12012,074000095483;16;2671652,326;2674455;1, NA, 2, 0, 0, 0;2674455, 2676097, 2676667, 2677125, 2677315, 2677473;"I found it really interesting to see how bad my memory was!  In the end I tried to memorise a few and then judge all the others based on the few that I had ""tried"" to remember.  ";3;yes;no;54;female;yes;;no;
apzvrxiaap22;2025-04-23;testing;NA;61;Common raccoon;34.png;0;675;365;9455,074000190943;11;2683667,726;2685992;9, NA, 6, 7, 5;2685992, 2686989, 2687639, 2688721, 2689761;"I found it really interesting to see how bad my memory was!  In the end I tried to memorise a few and then judge all the others based on the few that I had ""tried"" to remember.  ";3;yes;no;54;female;yes;;no;
apzvrxiaap22;2025-04-23;testing;NA;62;Dromedary;12.png;0;1250;1095;8832,900000190828;17;2693135,900;2696489;1, 2, 5, 0;2696489, 2696692, 2697719, 2698409;"I found it really interesting to see how bad my memory was!  In the end I tried to memorise a few and then judge all the others based on the few that I had ""tried"" to remember.  ";3;yes;no;54;female;yes;;no;
apzvrxiaap22;2025-04-23;testing;NA;63;Tiger;26.png;1;1200;1268;11885,100000095554;4;2701992,800;2706278;1, 2, 0, 0;2706278, 2708170, 2708930, 2709092;"I found it really interesting to see how bad my memory was!  In the end I tried to memorise a few and then judge all the others based on the few that I had ""tried"" to remember.  ";3;yes;no;54;female;yes;;no;
apzvrxiaap22;2025-04-23;testing;NA;64;Steller sea lion;32.png;0;670;1780;9462,600000000093;6;2713903,900;2716909;6, 7, 0;2716909, 2718494, 2719763;"I found it really interesting to see how bad my memory was!  In the end I tried to memorise a few and then judge all the others based on the few that I had ""tried"" to remember.  ";3;yes;no;54;female;yes;;no;
apzvrxiaap22;2025-04-23;testing;NA;65;African buffalo;10.png;1;1475;1475;10467,900000142865;3;2723375,700;2727306;1, 4, 7, 5;2727306, 2728516, 2729598, 2729995;"I found it really interesting to see how bad my memory was!  In the end I tried to memorise a few and then judge all the others based on the few that I had ""tried"" to remember.  ";3;yes;no;54;female;yes;;no;
apzvrxiaap22;2025-04-23;testing;NA;66;Gray wolf;19.png;0;1000;669;14831,800000190735;2;2733855,000;2743836;1, 0, 0, 0;2743836, 2744386, 2744550, 2744952;"I found it really interesting to see how bad my memory was!  In the end I tried to memorise a few and then judge all the others based on the few that I had ""tried"" to remember.  ";3;yes;no;54;female;yes;;no;
apzvrxiaap22;2025-04-23;testing;NA;67;Asiatic elephant;80.png;0;4000;3287;11550,900000190828;10;2748698,900;2755610;4, 0, 0, 0;2755610, 2756397, 2756580, 2756990;"I found it really interesting to see how bad my memory was!  In the end I tried to memorise a few and then judge all the others based on the few that I had ""tried"" to remember.  ";3;yes;no;54;female;yes;;no;
apzvrxiaap22;2025-04-23;testing;NA;68;Degu;73.png;0;90;182;10207,300000047777;0;2760268,400;2763466;9, 0;2763466, 2763710;"I found it really interesting to see how bad my memory was!  In the end I tried to memorise a few and then judge all the others based on the few that I had ""tried"" to remember.  ";3;yes;no;54;female;yes;;no;
apzvrxiaap22;2025-04-23;testing;NA;69;Horse;50.png;0;700;914;18300,000000000000;4;2770488,500;2775720;1, 0, 0, 0, 7, 0, 0;2775720, 2777999, 2778214, 2778591, 2783780, 2784751, 2784912;"I found it really interesting to see how bad my memory was!  In the end I tried to memorise a few and then judge all the others based on the few that I had ""tried"" to remember.  ";3;yes;no;54;female;yes;;no;
apzvrxiaap22;2025-04-23;testing;NA;70;Brazilian tapir;02.png;0;500;1095;7483,900000190828;3;2788806,400;2792161;5, 0, 0;2792161, 2792724, 2792872;"I found it really interesting to see how bad my memory was!  In the end I tried to memorise a few and then judge all the others based on the few that I had ""tried"" to remember.  ";3;yes;no;54;female;yes;;no;
apzvrxiaap22;2025-04-23;testing;NA;71;Red panda;09.png;1;500;550;11228,700000000186;2;2796311,800;2802593;5, 0, 0;2802593, 2803227, 2803382;"I found it really interesting to see how bad my memory was!  In the end I tried to memorise a few and then judge all the others based on the few that I had ""tried"" to remember.  ";3;yes;no;54;female;yes;;no;
apzvrxiaap22;2025-04-23;testing;NA;72;Guereza;58.png;0;400;1461;10898,300000143237;2;2807550,300;2811165;7, NA, 4, 0, 0;2811165, 2812740, 2813462, 2813943, 2814107;"I found it really interesting to see how bad my memory was!  In the end I tried to memorise a few and then judge all the others based on the few that I had ""tried"" to remember.  ";3;yes;no;54;female;yes;;no;
apzvrxiaap22;2025-04-23;testing;NA;73;Bactrian camel;11.png;0;2000;1278;7794,074000000022;2;2818454,926;2821751;2, 0, 0, 0;2821751, 2822420, 2822607, 2822807;"I found it really interesting to see how bad my memory was!  In the end I tried to memorise a few and then judge all the others based on the few that I had ""tried"" to remember.  ";3;yes;no;54;female;yes;;no;
apzvrxiaap22;2025-04-23;testing;NA;74;Caribou and reindeer;14.png;0;2000;662;14081,846000190824;3;2826246,454;2829789;2, 0, 0, 0;2829789, 2830264, 2830444, 2830592;"I found it really interesting to see how bad my memory was!  In the end I tried to memorise a few and then judge all the others based on the few that I had ""tried"" to remember.  ";3;yes;no;54;female;yes;;no;
apzvrxiaap22;2025-04-23;testing;NA;75;Duck-billed platypus;48.png;0;400;548;8845,000000047497;15;2840340,700;2842807;3, NA, 4, 0, 0;2842807, 2843806, 2844554, 2845067, 2845217;"I found it really interesting to see how bad my memory was!  In the end I tried to memorise a few and then judge all the others based on the few that I had ""tried"" to remember.  ";3;yes;no;54;female;yes;;no;
apzvrxiaap22;2025-04-23;testing;NA;76;Kirk's dik-dik;08.png;0;1200;213;28673,500000000000;2;2849194,500;2852157;1, 2, 0, 0;2852157, 2852914, 2853877, 2854034;"I found it really interesting to see how bad my memory was!  In the end I tried to memorise a few and then judge all the others based on the few that I had ""tried"" to remember.  ";3;yes;no;54;female;yes;;no;
apzvrxiaap22;2025-04-23;testing;NA;77;Wart hog;17.png;1;675;578;20533,876000190619;10;2877869,424;2888528;6, 7, 6, NA, 5;2888528, 2891895, 2892318, 2894109, 2894889;"I found it really interesting to see how bad my memory was!  In the end I tried to memorise a few and then judge all the others based on the few that I had ""tried"" to remember.  ";3;yes;no;54;female;yes;;no;
apzvrxiaap22;2025-04-23;testing;NA;78;Central American spider monkey;53.png;0;1190;1825;12199,799999999814;15;2898417,200;2905498;1, 1, 9, 0;2905498, 2906582, 2907056, 2907272;"I found it really interesting to see how bad my memory was!  In the end I tried to memorise a few and then judge all the others based on the few that I had ""tried"" to remember.  ";3;yes;no;54;female;yes;;no;
apzvrxiaap22;2025-04-23;testing;NA;79;Black lemur;66.png;0;900;540;6861,900000190828;2;2910631,900;2913475;9, 0, 0;2913475, 2914075, 2914228;"I found it really interesting to see how bad my memory was!  In the end I tried to memorise a few and then judge all the others based on the few that I had ""tried"" to remember.  ";3;yes;no;54;female;yes;;no;
apzvrxiaap22;2025-04-23;testing;NA;80;Lesser Egyptian jerboa;74.png;0;100;327;6723,799999999814;2;2917511,200;2920250;1, 0, 0;2920250, 2920662, 2920797;"I found it really interesting to see how bad my memory was!  In the end I tried to memorise a few and then judge all the others based on the few that I had ""tried"" to remember.  ";3;yes;no;54;female;yes;;no;
apzvrxiaap22;2025-04-23;testing;NA;81;Slender loris;68.png;1;380;380;11983,100000143051;2;2924243,500;2929517;3, 8, 0;2929517, 2930942, 2931573;"I found it really interesting to see how bad my memory was!  In the end I tried to memorise a few and then judge all the others based on the few that I had ""tried"" to remember.  ";3;yes;no;54;female;yes;;no;
apzvrxiaap22;2025-04-23;testing;NA;82;Western gray kangaroo;41.png;1;650;670;10244,900000190828;1;2936232,900;2941656;6, 5, 0;2941656, 2941924, 2942572;"I found it really interesting to see how bad my memory was!  In the end I tried to memorise a few and then judge all the others based on the few that I had ""tried"" to remember.  ";3;yes;no;54;female;yes;;no;
dp0g9nbjr8wo;2025-04-23;training;1;0;Wart hog;17.png;1;60;578;6597,899999999790;97;484230,400;488799;6, 0;488799, 488839;Size od animal;3;yes;no;42;male;yes;;no;
dp0g9nbjr8wo;2025-04-23;training;1;1;Bottlenosed dolphin;38.png;1;600;2831;4341,200000000012;89;494075,300;496703;6, 0, 0;496703, 496844, 496959;Size od animal;3;yes;no;42;male;yes;;no;
dp0g9nbjr8wo;2025-04-23;training;1;2;Red panda;09.png;1;1500;550;3750,400000000023;89;500255,600;502043;1, 5, 0, 0;502043, 502182, 502328, 502447;Size od animal;3;yes;no;42;male;yes;;no;
dp0g9nbjr8wo;2025-04-23;training;1;3;Nutria;76.png;1;250;152;4008,200000000186;86;512416,500;514602;2, 5, 0;514602, 514831, 514930;Size od animal;3;yes;no;42;male;yes;;no;
dp0g9nbjr8wo;2025-04-23;training;1;4;African bush elephant;70.png;1;3600;4018;9499,700000000012;135;522478,300;529306;3, 6, 0, 0;529306, 529694, 529964, 530170;Size od animal;3;yes;no;42;male;yes;;no;
dp0g9nbjr8wo;2025-04-23;training;1;5;Western gray kangaroo;41.png;1;2000;670;6234,500000000000;85;533789,500;536142;1, 5, NA, NA, 2, 0, 0, 0;536142, 536277, 537100, 537278, 537984, 538195, 538332, 538501;Size od animal;3;yes;no;42;male;yes;;no;
dp0g9nbjr8wo;2025-04-23;training;1;6;Slender loris;68.png;1;400;380;72947,399999999441;96;545867,000;611671;5, 0, 0, NA, NA, NA, 4, 0, 0;611671, 611773, 611905, 613348, 613490, 613649, 617203, 617344, 617566;Size od animal;3;yes;no;42;male;yes;;no;
dp0g9nbjr8wo;2025-04-23;training;1;7;African buffalo;10.png;1;3600;1475;4050,499999999767;78;620097,800;622334;3, 6, 0, 0;622334, 622534, 622632, 622837;Size od animal;3;yes;no;42;male;yes;;no;
dp0g9nbjr8wo;2025-04-23;training;1;8;Tiger;26.png;1;1500;1268;3590,699999999488;77;627760,700;629796;1, 5, 0, 0;629796, 629919, 629999, 630149;Size od animal;3;yes;no;42;male;yes;;no;
dp0g9nbjr8wo;2025-04-23;training;1;9;Sugar glider;43.png;1;250;236;11259,199999999488;118;632841,700;642342;2, 5, 0;642342, 642506, 642587;Size od animal;3;yes;no;42;male;yes;;no;
dp0g9nbjr8wo;2025-04-23;training;1;10;Eurasian red squirrel;77.png;1;300;296;3863,299999999464;91;645385,600;647836;3, 0, 0;647836, 648019, 648139;Size od animal;3;yes;no;42;male;yes;;no;
dp0g9nbjr8wo;2025-04-23;training;1;11;Stump-tailed macaque;59.png;1;900;1186;9432,699999999953;96;650716,300;654434;2, NA, 5, 0, 0, NA, NA, NA, 9, 0, 0;654434, 655259, 656142, 656307, 656481, 657111, 657215, 657364, 658580, 658783, 658902;Size od animal;3;yes;no;42;male;yes;;no;
