ID;timestamp;phase;block;trial;ID_item;img;training;est;true;rt_ms;response_duration_ms;time_stim_shown;first_input;input_values;input_times;strategy;country_knowledge;quality;cheated;age;gender;undisturbed;undisturbed_specific;technical_problems;technical_problems_specific
n11xewpgbxj4;2025-04-24;training;1;0;Costa Rica;c_48.png;1;75,0;81,0;15472,100000095365;105;38666,800;40882;NA, NA, NA, NA, NA, NA, NA, NA, NA, NA, NA, NA, NA, NA, NA, NA, NA, NA, NA, NA, NA, NA, NA, NA, NA, NA, NA, NA, NA, NA, NA, NA, NA, NA, NA, NA, NA, NA, NA, NA, NA, NA, NA, NA, NA, NA, NA, NA, NA, NA, NA, 7, 5;40882, 41724, 42036, 42396, 43433, 43568, 43745, 44245, 44296, 44347, 44395, 44446, 44496, 44545, 44595, 44646, 44697, 44746, 44795, 44846, 44896, 44947, 44996, 45046, 45097, 45147, 45196, 45247, 45296, 45346, 45396, 45446, 45496, 45547, 45595, 45646, 45696, 45747, 45796, 45846, 45895, 45945, 45995, 46046, 46096, 46146, 46196, 46245, 46295, 46346, 46395, 52643, 52941;"just my ;imited knowledge of each country ";4;yes;no;35;male;yes;;no;
n11xewpgbxj4;2025-04-24;training;1;1;Uruguay;c_51.png;1;80,0;78,3;4446,300000071526;NA;56965,500;59809;8, 0;59809, 60485;"just my ;imited knowledge of each country ";4;yes;no;35;male;yes;;no;
n11xewpgbxj4;2025-04-24;training;1;2;Mongolia;c_50.png;1;85,0;72,0;2516,300000023839;NA;63015,800;64675;8, 5;64675, 65298;"just my ;imited knowledge of each country ";4;yes;no;35;male;yes;;no;
n11xewpgbxj4;2025-04-24;training;1;3;Niue;c_79.png;1;70,0;70,1;2225,000000000000;NA;66533,000;68366;7, 0;68366, 68510;"just my ;imited knowledge of each country ";4;yes;no;35;male;yes;;no;
n11xewpgbxj4;2025-04-24;training;1;4;Guyana;c_59.png;1;70,0;70,3;1753,000000095373;NA;70348,900;71810;7, 0;71810, 71935;"just my ;imited knowledge of each country ";4;yes;no;35;male;yes;;no;
n11xewpgbxj4;2025-04-24;training;1;5;Colombia;c_17.png;1;72,0;77,9;2377,600000071528;NA;72998,700;74723;7, 2;74723, 75224;"just my ;imited knowledge of each country ";4;yes;no;35;male;yes;;no;
n11xewpgbxj4;2025-04-24;training;1;6;Egypt;c_9.png;1;69,0;71,8;2183,900000095367;NA;76299,000;78089;6, 9;78089, 78308;"just my ;imited knowledge of each country ";4;yes;no;35;male;yes;;no;
n11xewpgbxj4;2025-04-24;training;1;7;Jamaica;c_52.png;1;81,0;71,6;2623,800000095362;NA;79265,100;81411;8, 1;81411, 81590;"just my ;imited knowledge of each country ";4;yes;no;35;male;yes;;no;
n11xewpgbxj4;2025-04-24;training;1;8;Brunei;c_62.png;1;81,0;75,5;1944,900000071531;NA;83081,900;84731;8, 1;84731, 84862;"just my ;imited knowledge of each country ";4;yes;no;35;male;yes;;no;
n11xewpgbxj4;2025-04-24;training;1;9;France;c_14.png;1;70,0;83,5;3051,100000071528;NA;85781,700;88290;7, 0;88290, 88682;"just my ;imited knowledge of each country ";4;yes;no;35;male;yes;;no;
n11xewpgbxj4;2025-04-24;training;1;10;Cook Islands;c_76.png;1;79,0;75,5;2317,500000047687;NA;89632,200;91565;7, 9;91565, 91733;"just my ;imited knowledge of each country ";4;yes;no;35;male;yes;;no;
n11xewpgbxj4;2025-04-24;training;1;11;Nigeria;c_4.png;1;70,0;54,6;2401,100000000006;NA;92648,400;94796;7, 0;94796, 94939;"just my ;imited knowledge of each country ";4;yes;no;35;male;yes;;no;
n11xewpgbxj4;2025-04-24;training;2;0;Cook Islands;c_76.png;1;81,0;75,5;2266,100000071528;NA;96799,200;98816;8, 1;98816, 98961;"just my ;imited knowledge of each country ";4;yes;no;35;male;yes;;no;
n11xewpgbxj4;2025-04-24;training;2;1;Colombia;c_17.png;1;80,0;77,9;1617,300000047690;NA;99765,900;101071;8, 0;101071, 101204;"just my ;imited knowledge of each country ";4;yes;no;35;male;yes;;no;
n11xewpgbxj4;2025-04-24;training;2;2;Nigeria;c_4.png;1;65,0;54,6;2368,500000047687;NA;102098,700;104105;6, 5;104105, 104344;"just my ;imited knowledge of each country ";4;yes;no;35;male;yes;;no;
n11xewpgbxj4;2025-04-24;training;2;3;Guyana;c_59.png;1;71,0;70,3;3431,899999999994;NA;105198,600;108024;7, 1;108024, 108487;"just my ;imited knowledge of each country ";4;yes;no;35;male;yes;;no;
n11xewpgbxj4;2025-04-24;training;2;4;Costa Rica;c_48.png;1;71,0;81,0;1262,300000095362;NA;109348,100;110388;7, 1;110388, 110482;"just my ;imited knowledge of each country ";4;yes;no;35;male;yes;;no;
n11xewpgbxj4;2025-04-24;training;2;5;Mongolia;c_50.png;1;76,0;72,0;1913,800000000003;NA;111298,200;112658;7, 6;112658, 113052;"just my ;imited knowledge of each country ";4;yes;no;35;male;yes;;no;
n11xewpgbxj4;2025-04-24;training;2;6;Jamaica;c_52.png;1;81,0;71,6;1375,000000000000;NA;113948,000;115084;8, 1;115084, 115209;"just my ;imited knowledge of each country ";4;yes;no;35;male;yes;;no;
n11xewpgbxj4;2025-04-24;training;2;7;France;c_14.png;1;81,0;83,5;1245,700000095370;NA;115964,700;116983;8, 1;116983, 117085;"just my ;imited knowledge of each country ";4;yes;no;35;male;yes;;no;
n11xewpgbxj4;2025-04-24;training;2;8;Brunei;c_62.png;1;81,0;75,5;1496,600000000006;NA;117848,900;119108;8, 1;119108, 119203;"just my ;imited knowledge of each country ";4;yes;no;35;male;yes;;no;
n11xewpgbxj4;2025-04-24;training;2;9;Uruguay;c_51.png;1;83,0;78,3;2085,900000023845;NA;119964,700;121655;8, 3;121655, 121904;"just my ;imited knowledge of each country ";4;yes;no;35;male;yes;;no;
n11xewpgbxj4;2025-04-24;training;2;10;Egypt;c_9.png;1;78,0;71,8;1999,900000023845;NA;122798,700;124442;7, 8;124442, 124602;"just my ;imited knowledge of each country ";4;yes;no;35;male;yes;;no;
n11xewpgbxj4;2025-04-24;training;2;11;Niue;c_79.png;1;72,0;70,1;1418,300000071526;NA;125498,500;126459;7, 2;126459, 126800;"just my ;imited knowledge of each country ";4;yes;no;35;male;yes;;no;
n11xewpgbxj4;2025-04-24;training;3;0;Uruguay;c_51.png;1;72,0;78,3;1472,200000023848;NA;128631,400;129764;7, 2;129764, 129952;"just my ;imited knowledge of each country ";4;yes;no;35;male;yes;;no;
n11xewpgbxj4;2025-04-24;training;3;1;Niue;c_79.png;1;73,0;70,1;1194,500000023836;NA;130781,100;131602;7, 3;131602, 131832;"just my ;imited knowledge of each country ";4;yes;no;35;male;yes;;no;
n11xewpgbxj4;2025-04-24;training;3;2;Colombia;c_17.png;1;81,0;77,9;1280,700000047684;NA;132664,500;133658;8, 1;133658, 133788;"just my ;imited knowledge of each country ";4;yes;no;35;male;yes;;no;
n11xewpgbxj4;2025-04-24;training;3;3;Jamaica;c_52.png;1;81,0;71,6;1325,700000047684;NA;134582,000;135670;8, 1;135670, 135771;"just my ;imited knowledge of each country ";4;yes;no;35;male;yes;;no;
n11xewpgbxj4;2025-04-24;training;3;4;Mongolia;c_50.png;1;76,0;72,0;1893,700000071520;NA;136531,600;137741;7, 6;137741, 138188;"just my ;imited knowledge of each country ";4;yes;no;35;male;yes;;no;
n11xewpgbxj4;2025-04-24;training;3;5;Brunei;c_62.png;1;75,0;75,5;1417,000000047672;NA;139048,200;139891;7, 5;139891, 140266;"just my ;imited knowledge of each country ";4;yes;no;35;male;yes;;no;
n11xewpgbxj4;2025-04-24;training;3;6;France;c_14.png;1;81,0;83,5;1418,900000047695;NA;141114,300;142288;8, 1;142288, 142432;"just my ;imited knowledge of each country ";4;yes;no;35;male;yes;;no;
n11xewpgbxj4;2025-04-24;training;3;7;Egypt;c_9.png;1;70,0;71,8;1892,000000071537;NA;143214,300;144578;7, 0;144578, 144963;"just my ;imited knowledge of each country ";4;yes;no;35;male;yes;;no;
n11xewpgbxj4;2025-04-24;training;3;8;Nigeria;c_4.png;1;56,0;54,6;1836,300000047690;NA;145780,900;147367;5, 6;147367, 147528;"just my ;imited knowledge of each country ";4;yes;no;35;male;yes;;no;
n11xewpgbxj4;2025-04-24;training;3;9;Cook Islands;c_76.png;1;80,0;75,5;1614,100000047678;NA;148431,600;149656;8, 0;149656, 149862;"just my ;imited knowledge of each country ";4;yes;no;35;male;yes;;no;
n11xewpgbxj4;2025-04-24;training;3;10;Guyana;c_59.png;1;78,0;70,3;1596,600000071514;NA;150697,700;151907;7, 8;151907, 152122;"just my ;imited knowledge of each country ";4;yes;no;35;male;yes;;no;
n11xewpgbxj4;2025-04-24;training;3;11;Costa Rica;c_48.png;1;78,0;81,0;1224,300000047690;NA;152947,900;153831;7, 8;153831, 153982;"just my ;imited knowledge of each country ";4;yes;no;35;male;yes;;no;
n11xewpgbxj4;2025-04-24;training;4;0;Cook Islands;c_76.png;1;80,0;75,5;1908,400000095367;NA;155831,500;157273;8, 0;157273, 157574;"just my ;imited knowledge of each country ";4;yes;no;35;male;yes;;no;
n11xewpgbxj4;2025-04-24;training;4;1;Uruguay;c_51.png;1;78,0;78,3;1321,799999999988;NA;158381,700;159381;7, 8;159381, 159539;"just my ;imited knowledge of each country ";4;yes;no;35;male;yes;;no;
n11xewpgbxj4;2025-04-24;training;4;2;Egypt;c_9.png;1;70,0;71,8;1573,700000023848;NA;160347,400;161406;7, 0;161406, 161798;"just my ;imited knowledge of each country ";4;yes;no;35;male;yes;;no;
n11xewpgbxj4;2025-04-24;training;4;3;Mongolia;c_50.png;1;72,0;72,0;1371,200000071520;NA;162531,100;163504;7, 2;163504, 163794;"just my ;imited knowledge of each country ";4;yes;no;35;male;yes;;no;
n11xewpgbxj4;2025-04-24;training;4;4;Nigeria;c_4.png;1;56,0;54,6;2039,000000047672;NA;164581,200;166195;5, 6;166195, 166375;"just my ;imited knowledge of each country ";4;yes;no;35;male;yes;;no;
n11xewpgbxj4;2025-04-24;training;4;5;France;c_14.png;1;81,0;83,5;1237,900000023830;NA;167314,700;168334;8, 1;168334, 168434;"just my ;imited knowledge of each country ";4;yes;no;35;male;yes;;no;
n11xewpgbxj4;2025-04-24;training;4;6;Jamaica;c_52.png;1;80,0;71,6;1386,800000047690;NA;169197,400;170141;8, 0;170141, 170424;"just my ;imited knowledge of each country ";4;yes;no;35;male;yes;;no;
n11xewpgbxj4;2025-04-24;training;4;7;Colombia;c_17.png;1;82,0;77,9;1255,100000071514;NA;171231,200;172178;8, 2;172178, 172355;"just my ;imited knowledge of each country ";4;yes;no;35;male;yes;;no;
n11xewpgbxj4;2025-04-24;training;4;8;Costa Rica;c_48.png;1;78,0;81,0;1239,800000095362;NA;173130,600;174042;7, 8;174042, 174205;"just my ;imited knowledge of each country ";4;yes;no;35;male;yes;;no;
n11xewpgbxj4;2025-04-24;training;4;9;Brunei;c_62.png;1;78,0;75,5;1164,800000071526;NA;175014,000;175815;7, 8;175815, 175993;"just my ;imited knowledge of each country ";4;yes;no;35;male;yes;;no;
n11xewpgbxj4;2025-04-24;training;4;10;Niue;c_79.png;1;74,0;70,1;1683,100000023842;NA;176814,500;177852;7, 4;177852, 178262;"just my ;imited knowledge of each country ";4;yes;no;35;male;yes;;no;
n11xewpgbxj4;2025-04-24;training;4;11;Guyana;c_59.png;1;75,0;70,3;1162,100000000006;NA;179163,900;179960;7, 5;179960, 180185;"just my ;imited knowledge of each country ";4;yes;no;35;male;yes;;no;
n11xewpgbxj4;2025-04-24;training;5;0;France;c_14.png;1;82,0;83,5;3933,299999999988;NA;181963,700;185591;8, 2;185591, 185783;"just my ;imited knowledge of each country ";4;yes;no;35;male;yes;;no;
n11xewpgbxj4;2025-04-24;training;5;1;Nigeria;c_4.png;1;54,0;54,6;2007,000000095373;NA;186580,400;188340;5, 4;188340, 188503;"just my ;imited knowledge of each country ";4;yes;no;35;male;yes;;no;
n11xewpgbxj4;2025-04-24;training;5;2;Guyana;c_59.png;1;60,0;70,3;1857,200000047684;NA;189247,000;190820;6, 0;190820, 190949;"just my ;imited knowledge of each country ";4;yes;no;35;male;yes;;no;
n11xewpgbxj4;2025-04-24;training;5;3;Mongolia;c_50.png;1;78,0;72,0;1257,400000047695;NA;191680,300;192640;7, 8;192640, 192799;"just my ;imited knowledge of each country ";4;yes;no;35;male;yes;;no;
n11xewpgbxj4;2025-04-24;training;5;4;Costa Rica;c_48.png;1;72,0;81,0;1026,000000000000;NA;193547,000;194286;7, 2;194286, 194430;"just my ;imited knowledge of each country ";4;yes;no;35;male;yes;;no;
n11xewpgbxj4;2025-04-24;training;5;5;Jamaica;c_52.png;1;80,0;71,6;1009,800000095362;NA;195147,100;195801;8, 0;195801, 196026;"just my ;imited knowledge of each country ";4;yes;no;35;male;yes;;no;
n11xewpgbxj4;2025-04-24;training;5;6;Niue;c_79.png;1;82,0;70,1;1138,600000095379;NA;196747,800;197579;8, 2;197579, 197731;"just my ;imited knowledge of each country ";4;yes;no;35;male;yes;;no;
n11xewpgbxj4;2025-04-24;training;5;7;Colombia;c_17.png;1;82,0;77,9;1029,300000047690;NA;198480,900;199265;8, 2;199265, 199375;"just my ;imited knowledge of each country ";4;yes;no;35;male;yes;;no;
n11xewpgbxj4;2025-04-24;training;5;8;Uruguay;c_51.png;1;78,0;78,3;1654,500000071537;NA;200096,800;201299;7, 8;201299, 201569;"just my ;imited knowledge of each country ";4;yes;no;35;male;yes;;no;
n11xewpgbxj4;2025-04-24;training;5;9;Egypt;c_9.png;1;78,0;71,8;1226,800000023853;NA;202396,800;203294;7, 8;203294, 203439;"just my ;imited knowledge of each country ";4;yes;no;35;male;yes;;no;
n11xewpgbxj4;2025-04-24;training;5;10;Cook Islands;c_76.png;1;78,0;75,5;1516,300000071526;NA;204263,500;205419;7, 8;205419, 205608;"just my ;imited knowledge of each country ";4;yes;no;35;male;yes;;no;
n11xewpgbxj4;2025-04-24;training;5;11;Brunei;c_62.png;1;75,0;75,5;2313,200000000012;NA;206430,300;208361;7, 5;208361, 208613;"just my ;imited knowledge of each country ";4;yes;no;35;male;yes;;no;
n11xewpgbxj4;2025-04-24;training;6;0;Brunei;c_62.png;1;75,0;75,5;1273,399999999994;NA;210364,100;211374;7, 5;211374, 211505;"just my ;imited knowledge of each country ";4;yes;no;35;male;yes;;no;
n11xewpgbxj4;2025-04-24;training;6;1;Jamaica;c_52.png;1;81,0;71,6;1380,400000047695;NA;212196,800;213332;8, 1;213332, 213468;"just my ;imited knowledge of each country ";4;yes;no;35;male;yes;;no;
n11xewpgbxj4;2025-04-24;training;6;2;France;c_14.png;1;83,0;83,5;1269,500000023836;NA;214213,600;215028;8, 3;215028, 215376;"just my ;imited knowledge of each country ";4;yes;no;35;male;yes;;no;
n11xewpgbxj4;2025-04-24;training;6;3;Uruguay;c_51.png;1;78,0;78,3;1629,200000095356;NA;216130,200;217159;7, 8;217159, 217588;"just my ;imited knowledge of each country ";4;yes;no;35;male;yes;;no;
n11xewpgbxj4;2025-04-24;training;6;4;Egypt;c_9.png;1;75,0;71,8;1688,100000071514;NA;218413,200;219652;7, 5;219652, 220007;"just my ;imited knowledge of each country ";4;yes;no;35;male;yes;;no;
n11xewpgbxj4;2025-04-24;training;6;5;Mongolia;c_50.png;1;75,0;72,0;1159,800000071526;NA;220780,000;221662;7, 5;221662, 221833;"just my ;imited knowledge of each country ";4;yes;no;35;male;yes;;no;
n11xewpgbxj4;2025-04-24;training;6;6;Cook Islands;c_76.png;1;78,0;75,5;1536,900000047695;NA;222563,300;223449;7, 8;223449, 223996;"just my ;imited knowledge of each country ";4;yes;no;35;male;yes;;no;
n11xewpgbxj4;2025-04-24;training;6;7;Guyana;c_59.png;1;78,0;70,3;1250,500000095373;NA;224763,400;225684;7, 8;225684, 225833;"just my ;imited knowledge of each country ";4;yes;no;35;male;yes;;no;
n11xewpgbxj4;2025-04-24;training;6;8;Colombia;c_17.png;1;70,0;77,9;1395,500000000000;NA;226646,500;227579;7, 0;227579, 227855;"just my ;imited knowledge of each country ";4;yes;no;35;male;yes;;no;
n11xewpgbxj4;2025-04-24;training;6;9;Nigeria;c_4.png;1;54,0;54,6;2512,799999999988;NA;228680,200;229566;7, NA, 5, 4;229566, 230038, 230856, 231036;"just my ;imited knowledge of each country ";4;yes;no;35;male;yes;;no;
n11xewpgbxj4;2025-04-24;training;6;10;Niue;c_79.png;1;80,0;70,1;1471,400000095367;NA;231946,500;233033;8, 0;233033, 233265;"just my ;imited knowledge of each country ";4;yes;no;35;male;yes;;no;
n11xewpgbxj4;2025-04-24;training;6;11;Costa Rica;c_48.png;1;82,0;81,0;1275,200000023848;NA;233946,900;234887;8, 2;234887, 235102;"just my ;imited knowledge of each country ";4;yes;no;35;male;yes;;no;
n11xewpgbxj4;2025-04-24;training;7;0;Colombia;c_17.png;1;82,0;77,9;1301,300000095362;NA;236880,600;237953;8, 2;237953, 238067;"just my ;imited knowledge of each country ";4;yes;no;35;male;yes;;no;
n11xewpgbxj4;2025-04-24;training;7;1;Egypt;c_9.png;1;82,0;71,8;982,300000047690;NA;238762,900;239527;8, 2;239527, 239641;"just my ;imited knowledge of each country ";4;yes;no;35;male;yes;;no;
n11xewpgbxj4;2025-04-24;training;7;2;France;c_14.png;1;83,0;83,5;1344,500000000000;NA;240346,500;241349;8, 3;241349, 241567;"just my ;imited knowledge of each country ";4;yes;no;35;male;yes;;no;
n11xewpgbxj4;2025-04-24;training;7;3;Jamaica;c_52.png;1;80,0;71,6;2409,900000071531;NA;242262,900;244178;8, 0;244178, 244536;"just my ;imited knowledge of each country ";4;yes;no;35;male;yes;;no;
n11xewpgbxj4;2025-04-24;training;7;4;Uruguay;c_51.png;1;82,0;78,3;1274,600000071514;NA;245363,200;246402;8, 2;246402, 246516;"just my ;imited knowledge of each country ";4;yes;no;35;male;yes;;no;
n11xewpgbxj4;2025-04-24;training;7;5;Niue;c_79.png;1;72,0;70,1;1363,300000023853;NA;247246,800;248158;7, 2;248158, 248496;"just my ;imited knowledge of each country ";4;yes;no;35;male;yes;;no;
n11xewpgbxj4;2025-04-24;training;7;6;Cook Islands;c_76.png;1;73,0;75,5;1280,900000023830;NA;249229,700;250126;7, 3;250126, 250354;"just my ;imited knowledge of each country ";4;yes;no;35;male;yes;;no;
n11xewpgbxj4;2025-04-24;training;7;7;Guyana;c_59.png;1;75,0;70,3;1248,899999999994;NA;251146,100;251978;7, 5;251978, 252270;"just my ;imited knowledge of each country ";4;yes;no;35;male;yes;;no;
n11xewpgbxj4;2025-04-24;training;7;8;Mongolia;c_50.png;1;78,0;72,0;1517,700000047684;NA;253063,000;254067;7, 8;254067, 254408;"just my ;imited knowledge of each country ";4;yes;no;35;male;yes;;no;
n11xewpgbxj4;2025-04-24;training;7;9;Nigeria;c_4.png;1;75,0;54,6;1353,900000071531;NA;255262,900;256163;7, 5;256163, 256508;"just my ;imited knowledge of each country ";4;yes;no;35;male;yes;;no;
n11xewpgbxj4;2025-04-24;training;7;10;Costa Rica;c_48.png;1;82,0;81,0;1933,700000000012;NA;257262,800;258950;8, 2;258950, 259099;"just my ;imited knowledge of each country ";4;yes;no;35;male;yes;;no;
n11xewpgbxj4;2025-04-24;training;7;11;Brunei;c_62.png;1;76,0;75,5;1853,900000071531;NA;259845,900;261257;7, 6;261257, 261591;"just my ;imited knowledge of each country ";4;yes;no;35;male;yes;;no;
n11xewpgbxj4;2025-04-24;training;8;0;France;c_14.png;1;83,0;83,5;1729,599999999977;NA;263379,900;264678;8, 3;264678, 264980;"just my ;imited knowledge of each country ";4;yes;no;35;male;yes;;no;
n11xewpgbxj4;2025-04-24;training;8;1;Brunei;c_62.png;1;78,0;75,5;1482,100000047707;NA;265946,100;267092;7, 8;267092, 267264;"just my ;imited knowledge of each country ";4;yes;no;35;male;yes;;no;
n11xewpgbxj4;2025-04-24;training;8;2;Colombia;c_17.png;1;75,0;77,9;1151,000000047672;NA;268062,700;268854;7, 5;268854, 269106;"just my ;imited knowledge of each country ";4;yes;no;35;male;yes;;no;
n11xewpgbxj4;2025-04-24;training;8;3;Uruguay;c_51.png;1;77,0;78,3;972,000000095344;NA;269795,900;270564;7, 7;270564, 270683;"just my ;imited knowledge of each country ";4;yes;no;35;male;yes;;no;
n11xewpgbxj4;2025-04-24;training;8;4;Costa Rica;c_48.png;1;78,0;81,0;2497,900000095367;NA;271846,000;274026;7, 8;274026, 274164;"just my ;imited knowledge of each country ";4;yes;no;35;male;yes;;no;
n11xewpgbxj4;2025-04-24;training;8;5;Egypt;c_9.png;1;78,0;71,8;1182,800000047660;NA;274979,400;275855;7, 8;275855, 276003;"just my ;imited knowledge of each country ";4;yes;no;35;male;yes;;no;
n11xewpgbxj4;2025-04-24;training;8;6;Guyana;c_59.png;1;74,0;70,3;1336,600000095379;NA;276846,300;277742;7, 4;277742, 278076;"just my ;imited knowledge of each country ";4;yes;no;35;male;yes;;no;
n11xewpgbxj4;2025-04-24;training;8;7;Nigeria;c_4.png;1;54,0;54,6;1281,200000000012;NA;278895,800;279939;5, 4;279939, 280079;"just my ;imited knowledge of each country ";4;yes;no;35;male;yes;;no;
n11xewpgbxj4;2025-04-24;training;8;8;Jamaica;c_52.png;1;70,0;71,6;1594,400000023830;NA;280779,200;281710;7, 0;281710, 282207;"just my ;imited knowledge of each country ";4;yes;no;35;male;yes;;no;
n11xewpgbxj4;2025-04-24;training;8;9;Niue;c_79.png;1;82,0;70,1;1719,500000023865;NA;283095,600;284441;8, 2;284441, 284720;"just my ;imited knowledge of each country ";4;yes;no;35;male;yes;;no;
n11xewpgbxj4;2025-04-24;training;8;10;Mongolia;c_50.png;1;78,0;72,0;2086,800000071526;NA;285479,000;287280;7, 8;287280, 287453;"just my ;imited knowledge of each country ";4;yes;no;35;male;yes;;no;
n11xewpgbxj4;2025-04-24;training;8;11;Cook Islands;c_76.png;1;74,0;75,5;1320,500000095344;NA;288262,400;289202;7, 4;289202, 289469;"just my ;imited knowledge of each country ";4;yes;no;35;male;yes;;no;
n11xewpgbxj4;2025-04-24;testing;NA;0;Fiji;c_57.png;0;80,0;67,5;3547,100000023842;NA;303929,000;306771;8, 0;306771, 306952;"just my ;imited knowledge of each country ";4;yes;no;35;male;yes;;no;
n11xewpgbxj4;2025-04-24;testing;NA;1;Maldives;c_64.png;0;84,0;81,3;3437,400000023830;NA;307495,700;310437;8, 4;310437, 310808;"just my ;imited knowledge of each country ";4;yes;no;35;male;yes;;no;
n11xewpgbxj4;2025-04-24;testing;NA;2;Greece;c_39.png;0;88,0;82,0;2619,700000000012;NA;310946,300;312862;8, 8;312862, 313118;"just my ;imited knowledge of each country ";4;yes;no;35;male;yes;;no;
n11xewpgbxj4;2025-04-24;testing;NA;3;Guinea-Bissau;c_55.png;0;78,0;64,3;2345,800000023853;NA;313595,800;315568;7, 8;315568, 315756;"just my ;imited knowledge of each country ";4;yes;no;35;male;yes;;no;
n11xewpgbxj4;2025-04-24;testing;NA;4;Angola;c_21.png;0;76,0;64,8;2499,299999999988;NA;315945,200;318150;7, 6;318150, 318349;"just my ;imited knowledge of each country ";4;yes;no;35;male;yes;;no;
n11xewpgbxj4;2025-04-24;testing;NA;5;Honduras;c_40.png;0;77,0;73,0;1434,000000023865;NA;318462,100;319652;7, 7;319652, 319772;"just my ;imited knowledge of each country ";4;yes;no;35;male;yes;;no;
n11xewpgbxj4;2025-04-24;testing;NA;6;Taiwan;c_28.png;0;69,0;80,9;2433,200000071549;NA;319912,600;322024;6, 9;322024, 322163;"just my ;imited knowledge of each country ";4;yes;no;35;male;yes;;no;
n11xewpgbxj4;2025-04-24;testing;NA;7;Mexico;c_7.png;0;60,0;75,3;2777,700000071549;NA;322362,600;324780;6, 0;324780, 324985;"just my ;imited knowledge of each country ";4;yes;no;35;male;yes;;no;
n11xewpgbxj4;2025-04-24;testing;NA;8;Tonga;c_70.png;0;70,0;73,1;1506,800000095391;NA;325145,100;326367;7, 0;326367, 326517;"just my ;imited knowledge of each country ";4;yes;no;35;male;yes;;no;
n11xewpgbxj4;2025-04-24;testing;NA;9;Niue;c_79.png;1;77,0;70,1;1170,400000095367;NA;326662,000;327621;7, 7;327621, 327737;"just my ;imited knowledge of each country ";4;yes;no;35;male;yes;;no;
n11xewpgbxj4;2025-04-24;testing;NA;10;Ivory Coast;c_24.png;0;78,0;62,1;1417,300000095391;NA;327845,100;328993;7, 8;328993, 329166;"just my ;imited knowledge of each country ";4;yes;no;35;male;yes;;no;
n11xewpgbxj4;2025-04-24;testing;NA;11;China;c_1.png;0;69,0;78,0;2347,400000000023;NA;329278,600;331235;6, 9;331235, 331434;"just my ;imited knowledge of each country ";4;yes;no;35;male;yes;;no;
n11xewpgbxj4;2025-04-24;testing;NA;12;Syria;c_29.png;0;67,0;72,6;2201,668000000005;NA;331629,332;333196;6, 7;333196, 333733;"just my ;imited knowledge of each country ";4;yes;no;35;male;yes;;no;
n11xewpgbxj4;2025-04-24;testing;NA;13;Canada;c_19.png;0;70,0;82,7;2710,400000023830;NA;333845,700;336238;7, 0;336238, 336388;"just my ;imited knowledge of each country ";4;yes;no;35;male;yes;;no;
n11xewpgbxj4;2025-04-24;testing;NA;14;Tuvalu;c_78.png;0;77,0;67,3;2362,599999999977;NA;336561,900;338648;7, 7;338648, 338795;"just my ;imited knowledge of each country ";4;yes;no;35;male;yes;;no;
n11xewpgbxj4;2025-04-24;testing;NA;15;Trinidad and Tobago;c_56.png;0;77,0;73,6;1433,100000071514;NA;338929,200;340134;7, 7;340134, 340251;"just my ;imited knowledge of each country ";4;yes;no;35;male;yes;;no;
n11xewpgbxj4;2025-04-24;testing;NA;16;Brunei;c_62.png;1;72,0;75,5;2441,100000071514;NA;340378,200;341895;7, 2;341895, 342576;"just my ;imited knowledge of each country ";4;yes;no;35;male;yes;;no;
n11xewpgbxj4;2025-04-24;testing;NA;17;Samoa;c_66.png;0;73,0;71,8;1796,100000095379;NA;342845,300;343964;7, 3;343964, 344471;"just my ;imited knowledge of each country ";4;yes;no;35;male;yes;;no;
n11xewpgbxj4;2025-04-24;testing;NA;18;Jamaica;c_52.png;1;77,0;71,6;1360,300000023853;NA;344645,800;345761;7, 7;345761, 345892;"just my ;imited knowledge of each country ";4;yes;no;35;male;yes;;no;
n11xewpgbxj4;2025-04-24;testing;NA;19;Argentina;c_18.png;0;76,0;77,5;1500,400000047695;NA;346011,800;347184;7, 6;347184, 347369;"just my ;imited knowledge of each country ";4;yes;no;35;male;yes;;no;
n11xewpgbxj4;2025-04-24;testing;NA;20;Saint Kitts and Nevis;c_72.png;0;69,0;72,3;3406,500000047672;NA;347528,200;350196;6, 9;350196, 350724;"just my ;imited knowledge of each country ";4;yes;no;35;male;yes;;no;
n11xewpgbxj4;2025-04-24;testing;NA;21;Uruguay;c_51.png;1;77,0;78,3;1581,000000047672;NA;350945,700;352260;7, 7;352260, 352398;"just my ;imited knowledge of each country ";4;yes;no;35;male;yes;;no;
n11xewpgbxj4;2025-04-24;testing;NA;22;Benin;c_34.png;0;70,0;61,0;1769,572000047658;NA;352529,128;353767;7, 0;353767, 354096;"just my ;imited knowledge of each country ";4;yes;no;35;male;yes;;no;
n11xewpgbxj4;2025-04-24;testing;NA;23;Dominica;c_71.png;0;72,0;71,3;1854,200000000012;NA;354311,800;355654;7, 2;355654, 356010;"just my ;imited knowledge of each country ";4;yes;no;35;male;yes;;no;
n11xewpgbxj4;2025-04-24;testing;NA;24;Yemen;c_23.png;0;70,0;69,4;1530,599999999977;NA;356177,900;357439;7, 0;357439, 357572;"just my ;imited knowledge of each country ";4;yes;no;35;male;yes;;no;
n11xewpgbxj4;2025-04-24;testing;NA;25;Tanzania;c_16.png;0;77,0;67,2;1276,100000023842;NA;357711,500;358688;7, 7;358688, 358833;"just my ;imited knowledge of each country ";4;yes;no;35;male;yes;;no;
n11xewpgbxj4;2025-04-24;testing;NA;26;Saint Lucia;c_67.png;0;77,0;72,8;1241,400000095367;NA;358995,000;359974;7, 7;359974, 360115;"just my ;imited knowledge of each country ";4;yes;no;35;male;yes;;no;
n11xewpgbxj4;2025-04-24;testing;NA;27;Basketball;AC_text.png;;999,0;999,0;2836,300000047660;NA;360245,400;362020;9, 9, 9;362020, 362175, 362596;"just my ;imited knowledge of each country ";4;yes;no;35;male;yes;;no;
n11xewpgbxj4;2025-04-24;testing;NA;28;Colombia;c_17.png;1;80,0;77,9;6445,700000023819;NA;363111,900;368723;8, 0;368723, 368920;"just my ;imited knowledge of each country ";4;yes;no;35;male;yes;;no;
n11xewpgbxj4;2025-04-24;testing;NA;29;Iran;c_13.png;0;60,0;77,8;1987,800000023853;NA;369561,800;371220;6, 0;371220, 371421;"just my ;imited knowledge of each country ";4;yes;no;35;male;yes;;no;
n11xewpgbxj4;2025-04-24;testing;NA;30;Sao Tome and Principe;c_65.png;0;81,0;69,9;4409,400000023830;NA;371561,200;375558;8, 1;375558, 375800;"just my ;imited knowledge of each country ";4;yes;no;35;male;yes;;no;
n11xewpgbxj4;2025-04-24;testing;NA;31;Suriname;c_61.png;0;80,0;73,8;1892,700000095356;NA;375977,700;377590;8, 0;377590, 377704;"just my ;imited knowledge of each country ";4;yes;no;35;male;yes;;no;
n11xewpgbxj4;2025-04-24;testing;NA;32;Palau;c_75.png;0;77,0;69,4;1607,500000023865;NA;377878,100;379179;7, 7;379179, 379308;"just my ;imited knowledge of each country ";4;yes;no;35;male;yes;;no;
n11xewpgbxj4;2025-04-24;testing;NA;33;Nepal;c_25.png;0;72,0;70,6;1510,800000095391;NA;379495,100;380656;7, 2;380656, 380886;"just my ;imited knowledge of each country ";4;yes;no;35;male;yes;;no;
n11xewpgbxj4;2025-04-24;testing;NA;34;Vatican City;c_80.png;0;88,0;83,1;3100,500000023865;NA;381011,600;383681;8, 8;383681, 383892;"just my ;imited knowledge of each country ";4;yes;no;35;male;yes;;no;
n11xewpgbxj4;2025-04-24;testing;NA;35;Ethiopia;c_8.png;0;55,0;67,6;2715,400000095367;NA;384128,500;386603;5, 5;386603, 386729;"just my ;imited knowledge of each country ";4;yes;no;35;male;yes;;no;
n11xewpgbxj4;2025-04-24;testing;NA;36;Chile;c_31.png;0;77,0;81,4;4033,000000000000;NA;386861,000;388397;6, NA, 7, 7;388397, 389380, 390483, 390680;"just my ;imited knowledge of each country ";4;yes;no;35;male;yes;;no;
n11xewpgbxj4;2025-04-24;testing;NA;37;Moldova;c_53.png;0;70,0;71,3;1477,300000095391;NA;390911,100;392124;7, 0;392124, 392269;"just my ;imited knowledge of each country ";4;yes;no;35;male;yes;;no;
n11xewpgbxj4;2025-04-24;testing;NA;38;Seychelles;c_69.png;0;81,0;73,0;2688,600000047707;NA;392395,100;394629;8, 1;394629, 394987;"just my ;imited knowledge of each country ";4;yes;no;35;male;yes;;no;
n11xewpgbxj4;2025-04-24;testing;NA;39;Bhutan;c_58.png;0;77,0;73,3;1406,600000095379;NA;395094,300;396288;7, 7;396288, 396402;"just my ;imited knowledge of each country ";4;yes;no;35;male;yes;;no;
n11xewpgbxj4;2025-04-24;testing;NA;40;Libya;c_42.png;0;70,0;71,1;1732,300000071526;NA;396511,500;397914;7, 0;397914, 398055;"just my ;imited knowledge of each country ";4;yes;no;35;male;yes;;no;
n11xewpgbxj4;2025-04-24;testing;NA;41;Guyana;c_59.png;1;8,0;70,3;1951,800000023853;NA;398260,800;399762;8;399762;"just my ;imited knowledge of each country ";4;yes;no;35;male;yes;;no;
n11xewpgbxj4;2025-04-24;testing;NA;42;Ecuador;c_33.png;0;73,0;77,6;5028,300000047660;NA;400278,400;400254;1, NA, 7, 3;400254, 401143, 404258, 404640;"just my ;imited knowledge of each country ";4;yes;no;35;male;yes;;no;
n11xewpgbxj4;2025-04-24;testing;NA;43;Solomon Islands;c_60.png;0;71,0;70,7;2540,800000095391;NA;405311,600;407578;7, 1;407578, 407727;"just my ;imited knowledge of each country ";4;yes;no;35;male;yes;;no;
n11xewpgbxj4;2025-04-24;testing;NA;44;Basketball;AC_text.png;;999,0;999,0;2322,500000047672;NA;407860,700;409280;9, 9, 9;409280, 409427, 409694;"just my ;imited knowledge of each country ";4;yes;no;35;male;yes;;no;
n11xewpgbxj4;2025-04-24;testing;NA;45;South Africa;c_15.png;0;69,0;66,3;3281,200000095356;NA;410211,200;411962;6, 9;411962, 412267;"just my ;imited knowledge of each country ";4;yes;no;35;male;yes;;no;
n11xewpgbxj4;2025-04-24;testing;NA;46;Papua New Guinea;c_36.png;0;71,0;66,3;1971,726000023831;NA;413494,874;415213;7, 1;415213, 415353;"just my ;imited knowledge of each country ";4;yes;no;35;male;yes;;no;
n11xewpgbxj4;2025-04-24;testing;NA;47;Costa Rica;c_48.png;1;77,0;81,0;1316,900000000023;NA;415478,100;416509;7, 7;416509, 416634;"just my ;imited knowledge of each country ";4;yes;no;35;male;yes;;no;
n11xewpgbxj4;2025-04-24;testing;NA;48;India;c_2.png;0;68,0;72,2;2324,300000095391;NA;416810,600;418638;6, 8;418638, 418974;"just my ;imited knowledge of each country ";4;yes;no;35;male;yes;;no;
n11xewpgbxj4;2025-04-24;testing;NA;49;United Arab Emirates;c_41.png;0;81,0;83,1;2685,300000023853;NA;419143,800;421573;8, 1;421573, 421688;"just my ;imited knowledge of each country ";4;yes;no;35;male;yes;;no;
n11xewpgbxj4;2025-04-24;testing;NA;50;Paraguay;c_45.png;0;77,0;74,0;1581,000000023865;NA;421844,100;423136;7, 7;423136, 423268;"just my ;imited knowledge of each country ";4;yes;no;35;male;yes;;no;
n11xewpgbxj4;2025-04-24;testing;NA;51;Nigeria;c_4.png;1;74,0;54,6;1632,200000095356;NA;423443,700;424626;7, 4;424626, 424942;"just my ;imited knowledge of each country ";4;yes;no;35;male;yes;;no;
n11xewpgbxj4;2025-04-24;testing;NA;52;Haiti;c_37.png;0;69,0;65,1;4090,600000023842;NA;425094,500;428665;6, 9;428665, 429046;"just my ;imited knowledge of each country ";4;yes;no;35;male;yes;;no;
n11xewpgbxj4;2025-04-24;testing;NA;53;Croatia;c_49.png;0;83,0;78,8;2268,600000095379;NA;429193,800;430933;8, 3;430933, 431317;"just my ;imited knowledge of each country ";4;yes;no;35;male;yes;;no;
n11xewpgbxj4;2025-04-24;testing;NA;54;Vietnam;c_10.png;0;71,0;74,7;2892,800000023853;NA;431477,800;433593;7, 1;433593, 434233;"just my ;imited knowledge of each country ";4;yes;no;35;male;yes;;no;
n11xewpgbxj4;2025-04-24;testing;NA;55;Netherlands;c_32.png;0;73,0;82,3;2628,100000023842;NA;434377,500;436300;7, 3;436300, 436877;"just my ;imited knowledge of each country ";4;yes;no;35;male;yes;;no;
n11xewpgbxj4;2025-04-24;testing;NA;56;Saint Vincent and the Grenadines;c_68.png;0;77,0;71,4;2152,800000095391;NA;437011,100;438817;7, 7;438817, 438983;"just my ;imited knowledge of each country ";4;yes;no;35;male;yes;;no;
n11xewpgbxj4;2025-04-24;testing;NA;57;Peru;c_22.png;0;73,0;77,9;2258,800000095391;NA;439177,100;440758;7, 3;440758, 441120;"just my ;imited knowledge of each country ";4;yes;no;35;male;yes;;no;
n11xewpgbxj4;2025-04-24;testing;NA;58;Egypt;c_9.png;1;71,0;71,8;1879,800000095391;NA;441461,100;442704;7, 1;442704, 443171;"just my ;imited knowledge of each country ";4;yes;no;35;male;yes;;no;
n11xewpgbxj4;2025-04-24;testing;NA;59;Germany;c_12.png;0;70,0;81,5;3634,874000095355;NA;443344,526;446454;7, 0;446454, 446856;"just my ;imited knowledge of each country ";4;yes;no;35;male;yes;;no;
n11xewpgbxj4;2025-04-24;testing;NA;60;Lesotho;c_54.png;0;88,0;57,8;1672,700000023819;NA;446993,400;448336;8, 8;448336, 448476;"just my ;imited knowledge of each country ";4;yes;no;35;male;yes;;no;
n11xewpgbxj4;2025-04-24;testing;NA;61;New Zealand;c_47.png;0;78,0;82,0;1828,400000023830;NA;448676,700;450136;7, 8;450136, 450318;"just my ;imited knowledge of each country ";4;yes;no;35;male;yes;;no;
n11xewpgbxj4;2025-04-24;testing;NA;62;Bolivia;c_35.png;0;77,0;68,7;1534,300000047660;NA;450510,900;451722;7, 7;451722, 451871;"just my ;imited knowledge of each country ";4;yes;no;35;male;yes;;no;
n11xewpgbxj4;2025-04-24;testing;NA;63;Cook Islands;c_76.png;1;71,0;75,5;2133,600000095379;NA;452060,300;454191;7, 1;454191, 454192;"just my ;imited knowledge of each country ";4;yes;no;35;male;yes;;no;
n11xewpgbxj4;2025-04-24;testing;NA;64;Ireland;c_46.png;0;68,0;82,6;3593,200000047684;NA;454210,000;457003;6, 8;457003, 457371;"just my ;imited knowledge of each country ";4;yes;no;35;male;yes;;no;
n11xewpgbxj4;2025-04-24;testing;NA;65;Brazil;c_5.png;0;77,0;76,0;1474,700000047684;NA;457827,500;458965;7, 7;458965, 459108;"just my ;imited knowledge of each country ";4;yes;no;35;male;yes;;no;
n11xewpgbxj4;2025-04-24;testing;NA;66;Burkina Faso;c_30.png;0;72,0;61,3;1947,599999999977;NA;459310,400;460888;7, 2;460888, 461094;"just my ;imited knowledge of each country ";4;yes;no;35;male;yes;;no;
n11xewpgbxj4;2025-04-24;testing;NA;67;Russia;c_6.png;0;68,0;73,3;3167,600000047707;NA;461277,100;463377;6, 8;463377, 464228;"just my ;imited knowledge of each country ";4;yes;no;35;male;yes;;no;
n11xewpgbxj4;2025-04-24;testing;NA;68;Iceland;c_63.png;0;80,0;83,0;2352,600000047707;NA;464460,100;466415;8, 0;466415, 466668;"just my ;imited knowledge of each country ";4;yes;no;35;male;yes;;no;
n11xewpgbxj4;2025-04-24;testing;NA;69;France;c_14.png;1;83,0;83,5;1566,100000023842;NA;466827,000;467865;8, 3;467865, 468252;"just my ;imited knowledge of each country ";4;yes;no;35;male;yes;;no;
n11xewpgbxj4;2025-04-24;testing;NA;70;El Salvador;c_43.png;0;77,0;72,3;2284,100000047707;NA;468394,100;470315;7, 7;470315, 470470;"just my ;imited knowledge of each country ";4;yes;no;35;male;yes;;no;
n11xewpgbxj4;2025-04-24;testing;NA;71;Australia;c_27.png;0;69,0;84,1;2652,700000047684;NA;470693,000;473055;6, 9;473055, 473238;"just my ;imited knowledge of each country ";4;yes;no;35;male;yes;;no;
n11xewpgbxj4;2025-04-24;testing;NA;72;Nauru;c_77.png;0;70,0;62,3;2141,299999999988;NA;473359,700;474906;7, 0;474906, 475306;"just my ;imited knowledge of each country ";4;yes;no;35;male;yes;;no;
n11xewpgbxj4;2025-04-24;testing;NA;73;San Marino;c_74.png;0;71,0;85,8;1663,000000023865;NA;475509,600;476814;7, 1;476814, 477022;"just my ;imited knowledge of each country ";4;yes;no;35;male;yes;;no;
n11xewpgbxj4;2025-04-24;testing;NA;74;Serbia;c_44.png;0;68,0;76,9;2304,400000047695;NA;477176,300;478900;6, 8;478900, 479330;"just my ;imited knowledge of each country ";4;yes;no;35;male;yes;;no;
n11xewpgbxj4;2025-04-24;testing;NA;75;Marshall Islands;c_73.png;0;80,0;67,1;2166,400000095367;NA;479493,000;481269;8, 0;481269, 481489;"just my ;imited knowledge of each country ";4;yes;no;35;male;yes;;no;
n11xewpgbxj4;2025-04-24;testing;NA;76;Mongolia;c_50.png;1;79,0;72,0;1929,800000047660;NA;481676,400;483053;7, 9;483053, 483425;"just my ;imited knowledge of each country ";4;yes;no;35;male;yes;;no;
n11xewpgbxj4;2025-04-24;testing;NA;77;United States;c_3.png;0;69,0;79,5;2201,299999999988;NA;483609,700;485483;6, 9;485483, 485680;"just my ;imited knowledge of each country ";4;yes;no;35;male;yes;;no;
n11xewpgbxj4;2025-04-24;testing;NA;78;Venezuela;c_26.png;0;70,0;72,7;1735,200000095356;NA;485826,200;487074;7, 0;487074, 487454;"just my ;imited knowledge of each country ";4;yes;no;35;male;yes;;no;
n11xewpgbxj4;2025-04-24;testing;NA;79;Democratic Republic of the Congo;c_11.png;0;70,0;62,1;2249,500000071537;NA;487576,300;489368;7, 0;489368, 489721;"just my ;imited knowledge of each country ";4;yes;no;35;male;yes;;no;
n11xewpgbxj4;2025-04-24;testing;NA;80;Cuba;c_38.png;0;77,0;78,3;1615,799999999988;NA;489859,700;491187;7, 7;491187, 491303;"just my ;imited knowledge of each country ";4;yes;no;35;male;yes;;no;
n11xewpgbxj4;2025-04-24;testing;NA;81;Basketball;AC_text.png;;999,0;999,0;2352,800000023853;NA;491492,800;492797;9, 9, 9;492797, 492951, 493251;"just my ;imited knowledge of each country ";4;yes;no;35;male;yes;;no;
n11xewpgbxj4;2025-04-24;testing;NA;82;Ukraine;c_20.png;0;69,0;72,0;2608,599999999977;NA;493859,400;496006;6, 9;496006, 496284;"just my ;imited knowledge of each country ";4;yes;no;35;male;yes;;no;
6uh5kzap14vk;2025-04-24;training;1;0;Colombia;c_17.png;1;70,0;77,9;6518,599999904633;NA;326454,000;330860;7, 0;330860, 331179;Yes, I used the training information to provide estimates for countries in the same continent as the training. For example, the life expectancy in France is 83.5. Therefore, I estimated 80+ value for all European countries.;5;yes;no;49;male;yes;;no;
6uh5kzap14vk;2025-04-24;training;1;1;Guyana;c_59.png;1;80,0;70,3;3117,499999952328;NA;336621,800;339123;8, 0;339123, 339323;Yes, I used the training information to provide estimates for countries in the same continent as the training. For example, the life expectancy in France is 83.5. Therefore, I estimated 80+ value for all European countries.;5;yes;no;49;male;yes;;no;
6uh5kzap14vk;2025-04-24;training;1;2;Costa Rica;c_48.png;1;80,0;81,0;3944,999999856926;NA;341322,400;344755;8, 0;344755, 344987;Yes, I used the training information to provide estimates for countries in the same continent as the training. For example, the life expectancy in France is 83.5. Therefore, I estimated 80+ value for all European countries.;5;yes;no;49;male;yes;;no;
6uh5kzap14vk;2025-04-24;training;1;3;Niue;c_79.png;1;70,0;70,1;2864,499999904656;NA;346523,100;348883;7, 0;348883, 349107;Yes, I used the training information to provide estimates for countries in the same continent as the training. For example, the life expectancy in France is 83.5. Therefore, I estimated 80+ value for all European countries.;5;yes;no;49;male;yes;;no;
6uh5kzap14vk;2025-04-24;training;1;4;Brunei;c_62.png;1;70,0;75,5;2390,699999856937;NA;350524,700;352427;7, 0;352427, 352635;Yes, I used the training information to provide estimates for countries in the same continent as the training. For example, the life expectancy in France is 83.5. Therefore, I estimated 80+ value for all European countries.;5;yes;no;49;male;yes;;no;
6uh5kzap14vk;2025-04-24;training;1;5;Cook Islands;c_76.png;1;75,0;75,5;2338,299999952316;NA;354258,000;356067;7, 5;356067, 356515;Yes, I used the training information to provide estimates for countries in the same continent as the training. For example, the life expectancy in France is 83.5. Therefore, I estimated 80+ value for all European countries.;5;yes;no;49;male;yes;;no;
6uh5kzap14vk;2025-04-24;training;1;6;Jamaica;c_52.png;1;70,0;71,6;3086,999999904656;NA;357708,600;360043;7, 0;360043, 360562;Yes, I used the training information to provide estimates for countries in the same continent as the training. For example, the life expectancy in France is 83.5. Therefore, I estimated 80+ value for all European countries.;5;yes;no;49;male;yes;;no;
6uh5kzap14vk;2025-04-24;training;1;7;France;c_14.png;1;80,0;83,5;2064,899999904621;NA;362043,200;363499;8, 0;363499, 363699;Yes, I used the training information to provide estimates for countries in the same continent as the training. For example, the life expectancy in France is 83.5. Therefore, I estimated 80+ value for all European countries.;5;yes;no;49;male;yes;;no;
6uh5kzap14vk;2025-04-24;training;1;8;Nigeria;c_4.png;1;75,0;54,6;2292,400000000023;NA;365543,100;367075;7, 5;367075, 367619;Yes, I used the training information to provide estimates for countries in the same continent as the training. For example, the life expectancy in France is 83.5. Therefore, I estimated 80+ value for all European countries.;5;yes;no;49;male;yes;;no;
6uh5kzap14vk;2025-04-24;training;1;9;Uruguay;c_51.png;1;70,0;78,3;2325,400000000023;NA;373678,100;375283;7, 0;375283, 375563;Yes, I used the training information to provide estimates for countries in the same continent as the training. For example, the life expectancy in France is 83.5. Therefore, I estimated 80+ value for all European countries.;5;yes;no;49;male;yes;;no;
6uh5kzap14vk;2025-04-24;training;1;10;Mongolia;c_50.png;1;80,0;72,0;2270,399999856949;NA;382629,000;383947;8, 0;383947, 384315;Yes, I used the training information to provide estimates for countries in the same continent as the training. For example, the life expectancy in France is 83.5. Therefore, I estimated 80+ value for all European countries.;5;yes;no;49;male;yes;;no;
6uh5kzap14vk;2025-04-24;training;1;11;Egypt;c_9.png;1;70,0;71,8;2373,099999904633;NA;386230,500;387683;7, 0;387683, 388315;Yes, I used the training information to provide estimates for countries in the same continent as the training. For example, the life expectancy in France is 83.5. Therefore, I estimated 80+ value for all European countries.;5;yes;no;49;male;yes;;no;
6uh5kzap14vk;2025-04-24;training;2;0;Egypt;c_9.png;1;71,0;71,8;3110,700000000012;NA;390796,800;392859;7, 1;392859, 393427;Yes, I used the training information to provide estimates for countries in the same continent as the training. For example, the life expectancy in France is 83.5. Therefore, I estimated 80+ value for all European countries.;5;yes;no;49;male;yes;;no;
6uh5kzap14vk;2025-04-24;training;2;1;Cook Islands;c_76.png;1;71,0;75,5;2307,899999856949;NA;395047,500;396467;7, 1;396467, 396891;Yes, I used the training information to provide estimates for countries in the same continent as the training. For example, the life expectancy in France is 83.5. Therefore, I estimated 80+ value for all European countries.;5;yes;no;49;male;yes;;no;
6uh5kzap14vk;2025-04-24;training;2;2;Guyana;c_59.png;1;75,0;70,3;2079,099999904633;NA;398348,500;399771;7, 5;399771, 400043;Yes, I used the training information to provide estimates for countries in the same continent as the training. For example, the life expectancy in France is 83.5. Therefore, I estimated 80+ value for all European countries.;5;yes;no;49;male;yes;;no;
6uh5kzap14vk;2025-04-24;training;2;3;France;c_14.png;1;83,0;83,5;2615,399999856949;NA;401732,000;403379;8, 3;403379, 403867;Yes, I used the training information to provide estimates for countries in the same continent as the training. For example, the life expectancy in France is 83.5. Therefore, I estimated 80+ value for all European countries.;5;yes;no;49;male;yes;;no;
6uh5kzap14vk;2025-04-24;training;2;4;Niue;c_79.png;1;70,0;70,1;7046,799999809242;NA;405516,900;411548;7, 0;411548, 411899;Yes, I used the training information to provide estimates for countries in the same continent as the training. For example, the life expectancy in France is 83.5. Therefore, I estimated 80+ value for all European countries.;5;yes;no;49;male;yes;;no;
6uh5kzap14vk;2025-04-24;training;2;5;Jamaica;c_52.png;1;75,0;71,6;2255,699999856937;NA;413651,700;415283;7, 5;415283, 415771;Yes, I used the training information to provide estimates for countries in the same continent as the training. For example, the life expectancy in France is 83.5. Therefore, I estimated 80+ value for all European countries.;5;yes;no;49;male;yes;;no;
6uh5kzap14vk;2025-04-24;training;2;6;Nigeria;c_4.png;1;54,0;54,6;1567,200000000012;NA;416684,300;417859;5, 4;417859, 418011;Yes, I used the training information to provide estimates for countries in the same continent as the training. For example, the life expectancy in France is 83.5. Therefore, I estimated 80+ value for all European countries.;5;yes;no;49;male;yes;;no;
6uh5kzap14vk;2025-04-24;training;2;7;Costa Rica;c_48.png;1;75,0;81,0;2330,400000000023;NA;418969,100;420291;7, 5;420291, 421179;Yes, I used the training information to provide estimates for countries in the same continent as the training. For example, the life expectancy in France is 83.5. Therefore, I estimated 80+ value for all European countries.;5;yes;no;49;male;yes;;no;
6uh5kzap14vk;2025-04-24;training;2;8;Colombia;c_17.png;1;73,0;77,9;3494,299999904644;NA;422685,300;424987;7, 3;424987, 425988;Yes, I used the training information to provide estimates for countries in the same continent as the training. For example, the life expectancy in France is 83.5. Therefore, I estimated 80+ value for all European countries.;5;yes;no;49;male;yes;;no;
6uh5kzap14vk;2025-04-24;training;2;9;Uruguay;c_51.png;1;75,0;78,3;2493,700000000012;NA;427253,800;428651;7, 5;428651, 429626;Yes, I used the training information to provide estimates for countries in the same continent as the training. For example, the life expectancy in France is 83.5. Therefore, I estimated 80+ value for all European countries.;5;yes;no;49;male;yes;;no;
6uh5kzap14vk;2025-04-24;training;2;10;Mongolia;c_50.png;1;75,0;72,0;2793,999999904656;NA;430753,600;432379;7, 5;432379, 433426;Yes, I used the training information to provide estimates for countries in the same continent as the training. For example, the life expectancy in France is 83.5. Therefore, I estimated 80+ value for all European countries.;5;yes;no;49;male;yes;;no;
6uh5kzap14vk;2025-04-24;training;2;11;Brunei;c_62.png;1;72,0;75,5;1841,599999809288;NA;434321,600;435379;7, 2;435379, 435987;Yes, I used the training information to provide estimates for countries in the same continent as the training. For example, the life expectancy in France is 83.5. Therefore, I estimated 80+ value for all European countries.;5;yes;no;49;male;yes;;no;
6uh5kzap14vk;2025-04-24;training;3;0;France;c_14.png;1;83,5;83,5;3474,099999952305;NA;438121,200;440114;8, 3, ., 5;440114, 440939, 441075, 441443;Yes, I used the training information to provide estimates for countries in the same continent as the training. For example, the life expectancy in France is 83.5. Therefore, I estimated 80+ value for all European countries.;5;yes;no;49;male;yes;;no;
6uh5kzap14vk;2025-04-24;training;3;1;Jamaica;c_52.png;1;78,0;71,6;2921,199999856937;NA;442306,200;443955;7, 8;443955, 444819;Yes, I used the training information to provide estimates for countries in the same continent as the training. For example, the life expectancy in France is 83.5. Therefore, I estimated 80+ value for all European countries.;5;yes;no;49;male;yes;;no;
6uh5kzap14vk;2025-04-24;training;3;2;Costa Rica;c_48.png;1;78,0;81,0;1569,499999904656;NA;445906,100;446995;7, 8;446995, 447187;Yes, I used the training information to provide estimates for countries in the same continent as the training. For example, the life expectancy in France is 83.5. Therefore, I estimated 80+ value for all European countries.;5;yes;no;49;male;yes;;no;
6uh5kzap14vk;2025-04-24;training;3;3;Uruguay;c_51.png;1;75,0;78,3;2016,499999856926;NA;448522,900;449643;7, 5;449643, 450419;Yes, I used the training information to provide estimates for countries in the same continent as the training. For example, the life expectancy in France is 83.5. Therefore, I estimated 80+ value for all European countries.;5;yes;no;49;male;yes;;no;
6uh5kzap14vk;2025-04-24;training;3;4;Cook Islands;c_76.png;1;75,0;75,5;1651,599999999977;NA;451623,900;452827;7, 5;452827, 453067;Yes, I used the training information to provide estimates for countries in the same continent as the training. For example, the life expectancy in France is 83.5. Therefore, I estimated 80+ value for all European countries.;5;yes;no;49;male;yes;;no;
6uh5kzap14vk;2025-04-24;training;3;5;Egypt;c_9.png;1;71,0;71,8;1929,199999856937;NA;454058,200;455210;7, 1;455210, 455875;Yes, I used the training information to provide estimates for countries in the same continent as the training. For example, the life expectancy in France is 83.5. Therefore, I estimated 80+ value for all European countries.;5;yes;no;49;male;yes;;no;
6uh5kzap14vk;2025-04-24;training;3;6;Colombia;c_17.png;1;72,0;77,9;1709,299999809242;NA;456757,900;457851;7, 2;457851, 458283;Yes, I used the training information to provide estimates for countries in the same continent as the training. For example, the life expectancy in France is 83.5. Therefore, I estimated 80+ value for all European countries.;5;yes;no;49;male;yes;;no;
6uh5kzap14vk;2025-04-24;training;3;7;Guyana;c_59.png;1;75,0;70,3;1774,900000000023;NA;459324,600;460171;7, 5;460171, 460939;Yes, I used the training information to provide estimates for countries in the same continent as the training. For example, the life expectancy in France is 83.5. Therefore, I estimated 80+ value for all European countries.;5;yes;no;49;male;yes;;no;
6uh5kzap14vk;2025-04-24;training;3;8;Niue;c_79.png;1;72,0;70,1;1647,899999856949;NA;462259,500;463203;7, 2;463203, 463763;Yes, I used the training information to provide estimates for countries in the same continent as the training. For example, the life expectancy in France is 83.5. Therefore, I estimated 80+ value for all European countries.;5;yes;no;49;male;yes;;no;
6uh5kzap14vk;2025-04-24;training;3;9;Nigeria;c_4.png;1;54,0;54,6;2146,799999856972;NA;464776,600;466595;5, 4;466595, 466803;Yes, I used the training information to provide estimates for countries in the same continent as the training. For example, the life expectancy in France is 83.5. Therefore, I estimated 80+ value for all European countries.;5;yes;no;49;male;yes;;no;
6uh5kzap14vk;2025-04-24;training;3;10;Mongolia;c_50.png;1;72,0;72,0;2277,400000000023;NA;467726,100;469004;7, 2;469004, 469811;Yes, I used the training information to provide estimates for countries in the same continent as the training. For example, the life expectancy in France is 83.5. Therefore, I estimated 80+ value for all European countries.;5;yes;no;49;male;yes;;no;
6uh5kzap14vk;2025-04-24;training;3;11;Brunei;c_62.png;1;72,0;75,5;1631,999999856926;NA;470843,400;471859;7, 2;471859, 472251;Yes, I used the training information to provide estimates for countries in the same continent as the training. For example, the life expectancy in France is 83.5. Therefore, I estimated 80+ value for all European countries.;5;yes;no;49;male;yes;;no;
6uh5kzap14vk;2025-04-24;training;4;0;Brunei;c_62.png;1;72,0;75,5;2251,399999856949;NA;474344,000;475451;7, 2;475451, 476451;Yes, I used the training information to provide estimates for countries in the same continent as the training. For example, the life expectancy in France is 83.5. Therefore, I estimated 80+ value for all European countries.;5;yes;no;49;male;yes;;no;
6uh5kzap14vk;2025-04-24;training;4;1;Uruguay;c_51.png;1;72,0;78,3;1674,299999999988;NA;477361,200;478315;7, 2;478315, 478851;Yes, I used the training information to provide estimates for countries in the same continent as the training. For example, the life expectancy in France is 83.5. Therefore, I estimated 80+ value for all European countries.;5;yes;no;49;male;yes;;no;
6uh5kzap14vk;2025-04-24;training;4;2;France;c_14.png;1;83,0;83,5;1682,199999952340;NA;479929,100;480859;8, 3;480859, 481426;Yes, I used the training information to provide estimates for countries in the same continent as the training. For example, the life expectancy in France is 83.5. Therefore, I estimated 80+ value for all European countries.;5;yes;no;49;male;yes;;no;
6uh5kzap14vk;2025-04-24;training;4;3;Guyana;c_59.png;1;78,0;70,3;2141,799999999988;NA;482461,700;483443;7, 8;483443, 484419;Yes, I used the training information to provide estimates for countries in the same continent as the training. For example, the life expectancy in France is 83.5. Therefore, I estimated 80+ value for all European countries.;5;yes;no;49;male;yes;;no;
6uh5kzap14vk;2025-04-24;training;4;4;Colombia;c_17.png;1;78,0;77,9;3768,400000000023;NA;485779,100;487035;7, 8;487035, 489339;Yes, I used the training information to provide estimates for countries in the same continent as the training. For example, the life expectancy in France is 83.5. Therefore, I estimated 80+ value for all European countries.;5;yes;no;49;male;yes;;no;
6uh5kzap14vk;2025-04-24;training;4;5;Nigeria;c_4.png;1;54,5;54,6;2793,000000000000;NA;490546,500;491859;5, 4, ., 5;491859, 492387, 492787, 493187;Yes, I used the training information to provide estimates for countries in the same continent as the training. For example, the life expectancy in France is 83.5. Therefore, I estimated 80+ value for all European countries.;5;yes;no;49;male;yes;;no;
6uh5kzap14vk;2025-04-24;training;4;6;Jamaica;c_52.png;1;71,8;71,6;3442,099999999977;NA;494281,400;495443;7, 1, ., 8;495443, 496427, 496899, 497499;Yes, I used the training information to provide estimates for countries in the same continent as the training. For example, the life expectancy in France is 83.5. Therefore, I estimated 80+ value for all European countries.;5;yes;no;49;male;yes;;no;
6uh5kzap14vk;2025-04-24;training;4;7;Costa Rica;c_48.png;1;78,0;81,0;2218,499999809253;NA;498648,700;499866;7, 8;499866, 500611;Yes, I used the training information to provide estimates for countries in the same continent as the training. For example, the life expectancy in France is 83.5. Therefore, I estimated 80+ value for all European countries.;5;yes;no;49;male;yes;;no;
6uh5kzap14vk;2025-04-24;training;4;8;Niue;c_79.png;1;72,0;70,1;1906,599999809288;NA;501848,600;502947;7, 2;502947, 503611;Yes, I used the training information to provide estimates for countries in the same continent as the training. For example, the life expectancy in France is 83.5. Therefore, I estimated 80+ value for all European countries.;5;yes;no;49;male;yes;;no;
6uh5kzap14vk;2025-04-24;training;4;9;Egypt;c_9.png;1;71,0;71,8;1865,700000000012;NA;504849,800;506243;7, 1;506243, 506595;Yes, I used the training information to provide estimates for countries in the same continent as the training. For example, the life expectancy in France is 83.5. Therefore, I estimated 80+ value for all European countries.;5;yes;no;49;male;yes;;no;
6uh5kzap14vk;2025-04-24;training;4;10;Mongolia;c_50.png;1;80,0;72,0;3027,699999809265;NA;507383,500;508475;8, 0;508475, 509995;Yes, I used the training information to provide estimates for countries in the same continent as the training. For example, the life expectancy in France is 83.5. Therefore, I estimated 80+ value for all European countries.;5;yes;no;49;male;yes;;no;
6uh5kzap14vk;2025-04-24;training;4;11;Cook Islands;c_76.png;1;78,0;75,5;2051,099999952305;NA;511384,200;512851;7, 8;512851, 513083;Yes, I used the training information to provide estimates for countries in the same continent as the training. For example, the life expectancy in France is 83.5. Therefore, I estimated 80+ value for all European countries.;5;yes;no;49;male;yes;;no;
6uh5kzap14vk;2025-04-24;training;5;0;Brunei;c_62.png;1;75,0;75,5;2721,699999856937;NA;515233,700;516835;7, 5;516835, 517723;Yes, I used the training information to provide estimates for countries in the same continent as the training. For example, the life expectancy in France is 83.5. Therefore, I estimated 80+ value for all European countries.;5;yes;no;49;male;yes;;no;
6uh5kzap14vk;2025-04-24;training;5;1;Egypt;c_9.png;1;72,0;71,8;2020,500000000000;NA;518951,000;520315;7, 2;520315, 520787;Yes, I used the training information to provide estimates for countries in the same continent as the training. For example, the life expectancy in France is 83.5. Therefore, I estimated 80+ value for all European countries.;5;yes;no;49;male;yes;;no;
6uh5kzap14vk;2025-04-24;training;5;2;Uruguay;c_51.png;1;78,0;78,3;2461,200000000012;NA;521918,300;523059;7, 8;523059, 524195;Yes, I used the training information to provide estimates for countries in the same continent as the training. For example, the life expectancy in France is 83.5. Therefore, I estimated 80+ value for all European countries.;5;yes;no;49;male;yes;;no;
6uh5kzap14vk;2025-04-24;training;5;3;Cook Islands;c_76.png;1;72,0;75,5;1765,899999952293;NA;525485,400;526547;7, 2;526547, 527107;Yes, I used the training information to provide estimates for countries in the same continent as the training. For example, the life expectancy in France is 83.5. Therefore, I estimated 80+ value for all European countries.;5;yes;no;49;male;yes;;no;
6uh5kzap14vk;2025-04-24;training;5;4;Guyana;c_59.png;1;72,0;70,3;1438,099999856902;NA;528269,300;529163;7, 2;529163, 529563;Yes, I used the training information to provide estimates for countries in the same continent as the training. For example, the life expectancy in France is 83.5. Therefore, I estimated 80+ value for all European countries.;5;yes;no;49;male;yes;;no;
6uh5kzap14vk;2025-04-24;training;5;5;Mongolia;c_50.png;1;78,0;72,0;1832,599999904633;NA;530603,000;531643;7, 8;531643, 532147;Yes, I used the training information to provide estimates for countries in the same continent as the training. For example, the life expectancy in France is 83.5. Therefore, I estimated 80+ value for all European countries.;5;yes;no;49;male;yes;;no;
6uh5kzap14vk;2025-04-24;training;5;6;Costa Rica;c_48.png;1;78,0;81,0;1520,699999999953;NA;533386,800;534451;7, 8;534451, 534627;Yes, I used the training information to provide estimates for countries in the same continent as the training. For example, the life expectancy in France is 83.5. Therefore, I estimated 80+ value for all European countries.;5;yes;no;49;male;yes;;no;
6uh5kzap14vk;2025-04-24;training;5;7;Nigeria;c_4.png;1;54,0;54,6;1797,500000000000;NA;536038,000;537395;5, 4;537395, 537658;Yes, I used the training information to provide estimates for countries in the same continent as the training. For example, the life expectancy in France is 83.5. Therefore, I estimated 80+ value for all European countries.;5;yes;no;49;male;yes;;no;
6uh5kzap14vk;2025-04-24;training;5;8;Colombia;c_17.png;1;78,0;77,9;3087,099999999977;NA;538804,400;540171;7, 8;540171, 541523;Yes, I used the training information to provide estimates for countries in the same continent as the training. For example, the life expectancy in France is 83.5. Therefore, I estimated 80+ value for all European countries.;5;yes;no;49;male;yes;;no;
6uh5kzap14vk;2025-04-24;training;5;9;Jamaica;c_52.png;1;71,0;71,6;2849,799999856972;NA;542921,600;544123;7, 1;544123, 545595;Yes, I used the training information to provide estimates for countries in the same continent as the training. For example, the life expectancy in France is 83.5. Therefore, I estimated 80+ value for all European countries.;5;yes;no;49;male;yes;;no;
6uh5kzap14vk;2025-04-24;training;5;10;Niue;c_79.png;1;75,0;70,1;1979,599999999977;NA;547239,900;548675;7, 5;548675, 549067;Yes, I used the training information to provide estimates for countries in the same continent as the training. For example, the life expectancy in France is 83.5. Therefore, I estimated 80+ value for all European countries.;5;yes;no;49;male;yes;;no;
6uh5kzap14vk;2025-04-24;training;5;11;France;c_14.png;1;83,0;83,5;1509,500000000000;NA;550206,000;551187;8, 3;551187, 551595;Yes, I used the training information to provide estimates for countries in the same continent as the training. For example, the life expectancy in France is 83.5. Therefore, I estimated 80+ value for all European countries.;5;yes;no;49;male;yes;;no;
6uh5kzap14vk;2025-04-24;testing;NA;0;Iceland;c_63.png;0;85,0;83,0;2949,099999856902;NA;582062,300;584235;8, 5;584235, 584715;Yes, I used the training information to provide estimates for countries in the same continent as the training. For example, the life expectancy in France is 83.5. Therefore, I estimated 80+ value for all European countries.;5;yes;no;49;male;yes;;no;
6uh5kzap14vk;2025-04-24;testing;NA;1;Brunei;c_62.png;1;75,0;75,5;3398,099999999977;NA;585029,400;587075;7, 5;587075, 588202;Yes, I used the training information to provide estimates for countries in the same continent as the training. For example, the life expectancy in France is 83.5. Therefore, I estimated 80+ value for all European countries.;5;yes;no;49;male;yes;;no;
6uh5kzap14vk;2025-04-24;testing;NA;2;San Marino;c_74.png;0;78,0;85,8;2605,475999856950;NA;588429,924;590507;7, 8;590507, 590691;Yes, I used the training information to provide estimates for countries in the same continent as the training. For example, the life expectancy in France is 83.5. Therefore, I estimated 80+ value for all European countries.;5;yes;no;49;male;yes;;no;
6uh5kzap14vk;2025-04-24;testing;NA;3;Bolivia;c_35.png;0;71,0;68,7;2429,299999904586;NA;591046,300;592755;7, 1;592755, 593211;Yes, I used the training information to provide estimates for countries in the same continent as the training. For example, the life expectancy in France is 83.5. Therefore, I estimated 80+ value for all European countries.;5;yes;no;49;male;yes;;no;
6uh5kzap14vk;2025-04-24;testing;NA;4;Sao Tome and Principe;c_65.png;0;72,0;69,9;2154,599999856902;NA;593496,800;595123;7, 2;595123, 595467;Yes, I used the training information to provide estimates for countries in the same continent as the training. For example, the life expectancy in France is 83.5. Therefore, I estimated 80+ value for all European countries.;5;yes;no;49;male;yes;;no;
6uh5kzap14vk;2025-04-24;testing;NA;5;Saint Kitts and Nevis;c_72.png;0;65,0;72,3;3058,399999809219;NA;595663,800;598003;6, 5;598003, 598555;Yes, I used the training information to provide estimates for countries in the same continent as the training. For example, the life expectancy in France is 83.5. Therefore, I estimated 80+ value for all European countries.;5;yes;no;49;male;yes;;no;
6uh5kzap14vk;2025-04-24;testing;NA;6;Canada;c_19.png;0;84,0;82,7;2448,799999856972;NA;598730,600;600442;8, 4;600442, 601011;Yes, I used the training information to provide estimates for countries in the same continent as the training. For example, the life expectancy in France is 83.5. Therefore, I estimated 80+ value for all European countries.;5;yes;no;49;male;yes;;no;
6uh5kzap14vk;2025-04-24;testing;NA;7;Yemen;c_23.png;0;75,0;69,4;2685,899999904679;NA;601181,700;602627;7, 5;602627, 603700;Yes, I used the training information to provide estimates for countries in the same continent as the training. For example, the life expectancy in France is 83.5. Therefore, I estimated 80+ value for all European countries.;5;yes;no;49;male;yes;;no;
6uh5kzap14vk;2025-04-24;testing;NA;8;Lesotho;c_54.png;0;55,0;57,8;3345,399999856949;NA;603882,000;605939;5, 5;605939, 607043;Yes, I used the training information to provide estimates for countries in the same continent as the training. For example, the life expectancy in France is 83.5. Therefore, I estimated 80+ value for all European countries.;5;yes;no;49;male;yes;;no;
6uh5kzap14vk;2025-04-24;testing;NA;9;Vietnam;c_10.png;0;70,0;74,7;3523,099999904633;NA;607232,500;609819;7, 0;609819, 610371;Yes, I used the training information to provide estimates for countries in the same continent as the training. For example, the life expectancy in France is 83.5. Therefore, I estimated 80+ value for all European countries.;5;yes;no;49;male;yes;;no;
6uh5kzap14vk;2025-04-24;testing;NA;10;Seychelles;c_69.png;0;70,0;73,0;2949,399999904679;NA;610766,200;613035;7, 0;613035, 613443;Yes, I used the training information to provide estimates for countries in the same continent as the training. For example, the life expectancy in France is 83.5. Therefore, I estimated 80+ value for all European countries.;5;yes;no;49;male;yes;;no;
6uh5kzap14vk;2025-04-24;testing;NA;11;Honduras;c_40.png;0;72,0;73,0;3221,399999856949;NA;613733,000;615779;7, 2;615779, 616714;Yes, I used the training information to provide estimates for countries in the same continent as the training. For example, the life expectancy in France is 83.5. Therefore, I estimated 80+ value for all European countries.;5;yes;no;49;male;yes;;no;
6uh5kzap14vk;2025-04-24;testing;NA;12;Palau;c_75.png;0;75,0;69,4;1732,199999904609;NA;616966,900;618059;7, 5;618059, 618579;Yes, I used the training information to provide estimates for countries in the same continent as the training. For example, the life expectancy in France is 83.5. Therefore, I estimated 80+ value for all European countries.;5;yes;no;49;male;yes;;no;
6uh5kzap14vk;2025-04-24;testing;NA;13;Egypt;c_9.png;1;71,0;71,8;2309,605999904685;NA;618701,494;620418;7, 1;620418, 620866;Yes, I used the training information to provide estimates for countries in the same continent as the training. For example, the life expectancy in France is 83.5. Therefore, I estimated 80+ value for all European countries.;5;yes;no;49;male;yes;;no;
6uh5kzap14vk;2025-04-24;testing;NA;14;Suriname;c_61.png;0;70,0;73,8;2586,099999904633;NA;621017,500;622963;7, 0;622963, 623243;Yes, I used the training information to provide estimates for countries in the same continent as the training. For example, the life expectancy in France is 83.5. Therefore, I estimated 80+ value for all European countries.;5;yes;no;49;male;yes;;no;
6uh5kzap14vk;2025-04-24;testing;NA;15;Ethiopia;c_8.png;0;68,0;67,6;2800,400000000023;NA;623618,600;625459;6, 8;625459, 626123;Yes, I used the training information to provide estimates for countries in the same continent as the training. For example, the life expectancy in France is 83.5. Therefore, I estimated 80+ value for all European countries.;5;yes;no;49;male;yes;;no;
6uh5kzap14vk;2025-04-24;testing;NA;16;Angola;c_21.png;0;70,0;64,8;2167,099999952363;NA;626436,200;627795;7, 0;627795, 628075;Yes, I used the training information to provide estimates for countries in the same continent as the training. For example, the life expectancy in France is 83.5. Therefore, I estimated 80+ value for all European countries.;5;yes;no;49;male;yes;;no;
6uh5kzap14vk;2025-04-24;testing;NA;17;Serbia;c_44.png;0;75,0;76,9;4704,267999856966;NA;628603,132;632443;7, 5;632443, 633171;Yes, I used the training information to provide estimates for countries in the same continent as the training. For example, the life expectancy in France is 83.5. Therefore, I estimated 80+ value for all European countries.;5;yes;no;49;male;yes;;no;
6uh5kzap14vk;2025-04-24;testing;NA;18;Nigeria;c_4.png;1;54,6;54,6;2571,799999952316;NA;633319,500;634499;5, 4, ., 6;634499, 634803, 635187, 635548;Yes, I used the training information to provide estimates for countries in the same continent as the training. For example, the life expectancy in France is 83.5. Therefore, I estimated 80+ value for all European countries.;5;yes;no;49;male;yes;;no;
6uh5kzap14vk;2025-04-24;testing;NA;19;Marshall Islands;c_73.png;0;70,0;67,1;2555,599999952363;NA;635903,700;637683;7, 0;637683, 638171;Yes, I used the training information to provide estimates for countries in the same continent as the training. For example, the life expectancy in France is 83.5. Therefore, I estimated 80+ value for all European countries.;5;yes;no;49;male;yes;;no;
6uh5kzap14vk;2025-04-24;testing;NA;20;Tonga;c_70.png;0;70,0;73,1;1900,799999952316;NA;638470,500;639699;7, 0;639699, 640059;Yes, I used the training information to provide estimates for countries in the same continent as the training. For example, the life expectancy in France is 83.5. Therefore, I estimated 80+ value for all European countries.;5;yes;no;49;male;yes;;no;
6uh5kzap14vk;2025-04-24;testing;NA;21;United Arab Emirates;c_41.png;0;75,0;83,1;2263,699999809265;NA;640387,500;642203;7, 5;642203, 642467;Yes, I used the training information to provide estimates for countries in the same continent as the training. For example, the life expectancy in France is 83.5. Therefore, I estimated 80+ value for all European countries.;5;yes;no;49;male;yes;;no;
6uh5kzap14vk;2025-04-24;testing;NA;22;Saint Lucia;c_67.png;0;70,0;72,8;3420,499999856926;NA;642654,900;645355;7, 0;645355, 645811;Yes, I used the training information to provide estimates for countries in the same continent as the training. For example, the life expectancy in France is 83.5. Therefore, I estimated 80+ value for all European countries.;5;yes;no;49;male;yes;;no;
6uh5kzap14vk;2025-04-24;testing;NA;23;China;c_1.png;0;80,0;78,0;4122,299999809242;NA;646088,400;649267;8, 0;649267, 649635;Yes, I used the training information to provide estimates for countries in the same continent as the training. For example, the life expectancy in France is 83.5. Therefore, I estimated 80+ value for all European countries.;5;yes;no;49;male;yes;;no;
6uh5kzap14vk;2025-04-24;testing;NA;24;Basketball;AC_text.png;;0,0;999,0;7732,799999904586;NA;650222,800;657059;0;657059;Yes, I used the training information to provide estimates for countries in the same continent as the training. For example, the life expectancy in France is 83.5. Therefore, I estimated 80+ value for all European countries.;5;yes;no;49;male;yes;;no;
6uh5kzap14vk;2025-04-24;testing;NA;25;Solomon Islands;c_60.png;0;70,0;70,7;2220,699999952340;NA;657974,600;659571;7, 0;659571, 659875;Yes, I used the training information to provide estimates for countries in the same continent as the training. For example, the life expectancy in France is 83.5. Therefore, I estimated 80+ value for all European countries.;5;yes;no;49;male;yes;;no;
6uh5kzap14vk;2025-04-24;testing;NA;26;Bhutan;c_58.png;0;70,0;73,3;2228,299999904586;NA;660207,300;661763;7, 0;661763, 662083;Yes, I used the training information to provide estimates for countries in the same continent as the training. For example, the life expectancy in France is 83.5. Therefore, I estimated 80+ value for all European countries.;5;yes;no;49;male;yes;;no;
6uh5kzap14vk;2025-04-24;testing;NA;27;Basketball;AC_text.png;;70,0;999,0;4608,199999904609;NA;662458,900;666347;7, 0;666347, 666595;Yes, I used the training information to provide estimates for countries in the same continent as the training. For example, the life expectancy in France is 83.5. Therefore, I estimated 80+ value for all European countries.;5;yes;no;49;male;yes;;no;
6uh5kzap14vk;2025-04-24;testing;NA;28;Mexico;c_7.png;0;72,0;75,3;2374,699999999953;NA;667092,800;668827;7, 2;668827, 669331;Yes, I used the training information to provide estimates for countries in the same continent as the training. For example, the life expectancy in France is 83.5. Therefore, I estimated 80+ value for all European countries.;5;yes;no;49;male;yes;;no;
6uh5kzap14vk;2025-04-24;testing;NA;29;Netherlands;c_32.png;0;82,0;82,3;2495,900000000023;NA;669475,600;670867;8, 2;670867, 671755;Yes, I used the training information to provide estimates for countries in the same continent as the training. For example, the life expectancy in France is 83.5. Therefore, I estimated 80+ value for all European countries.;5;yes;no;49;male;yes;;no;
6uh5kzap14vk;2025-04-24;testing;NA;30;United States;c_3.png;0;80,0;79,5;3410,799999904586;NA;671976,300;674099;8, 0;674099, 674842;Yes, I used the training information to provide estimates for countries in the same continent as the training. For example, the life expectancy in France is 83.5. Therefore, I estimated 80+ value for all European countries.;5;yes;no;49;male;yes;;no;
6uh5kzap14vk;2025-04-24;testing;NA;31;Niue;c_79.png;1;71,0;70,1;2679,899999856949;NA;675410,500;677539;7, 1;677539, 677971;Yes, I used the training information to provide estimates for countries in the same continent as the training. For example, the life expectancy in France is 83.5. Therefore, I estimated 80+ value for all European countries.;5;yes;no;49;male;yes;;no;
6uh5kzap14vk;2025-04-24;testing;NA;32;Australia;c_27.png;0;82,0;84,1;2301,599999952363;NA;678093,700;679779;8, 2;679779, 680291;Yes, I used the training information to provide estimates for countries in the same continent as the training. For example, the life expectancy in France is 83.5. Therefore, I estimated 80+ value for all European countries.;5;yes;no;49;male;yes;;no;
6uh5kzap14vk;2025-04-24;testing;NA;33;South Africa;c_15.png;0;70,0;66,3;3096,699999856995;NA;680410,700;682651;7, 0;682651, 683227;Yes, I used the training information to provide estimates for countries in the same continent as the training. For example, the life expectancy in France is 83.5. Therefore, I estimated 80+ value for all European countries.;5;yes;no;49;male;yes;;no;
6uh5kzap14vk;2025-04-24;testing;NA;34;Iran;c_13.png;0;55,0;77,8;4635,499999856926;NA;683527,900;684978;7, 0, NA, NA, 5, 5;684978, 685290, 685787, 686044, 687051, 688019;Yes, I used the training information to provide estimates for countries in the same continent as the training. For example, the life expectancy in France is 83.5. Therefore, I estimated 80+ value for all European countries.;5;yes;no;49;male;yes;;no;
6uh5kzap14vk;2025-04-24;testing;NA;35;Taiwan;c_28.png;0;70,0;80,9;2904,199999856995;NA;688179,200;689891;7, 0;689891, 690818;Yes, I used the training information to provide estimates for countries in the same continent as the training. For example, the life expectancy in France is 83.5. Therefore, I estimated 80+ value for all European countries.;5;yes;no;49;male;yes;;no;
6uh5kzap14vk;2025-04-24;testing;NA;36;Nauru;c_77.png;0;70,0;62,3;2163,199999856995;NA;691096,200;692691;7, 0;692691, 692939;Yes, I used the training information to provide estimates for countries in the same continent as the training. For example, the life expectancy in France is 83.5. Therefore, I estimated 80+ value for all European countries.;5;yes;no;49;male;yes;;no;
6uh5kzap14vk;2025-04-24;testing;NA;37;Uruguay;c_51.png;1;72,0;78,3;6139,400000000023;NA;693280,100;698771;7, 2;698771, 699283;Yes, I used the training information to provide estimates for countries in the same continent as the training. For example, the life expectancy in France is 83.5. Therefore, I estimated 80+ value for all European countries.;5;yes;no;49;male;yes;;no;
6uh5kzap14vk;2025-04-24;testing;NA;38;Maldives;c_64.png;0;75,0;81,3;1901,199999809265;NA;699430,500;700675;7, 5;700675, 701219;Yes, I used the training information to provide estimates for countries in the same continent as the training. For example, the life expectancy in France is 83.5. Therefore, I estimated 80+ value for all European countries.;5;yes;no;49;male;yes;;no;
6uh5kzap14vk;2025-04-24;testing;NA;39;Ireland;c_46.png;0;85,0;82,6;2527,939999999944;NA;701331,560;703115;8, 5;703115, 703763;Yes, I used the training information to provide estimates for countries in the same continent as the training. For example, the life expectancy in France is 83.5. Therefore, I estimated 80+ value for all European countries.;5;yes;no;49;male;yes;;no;
6uh5kzap14vk;2025-04-24;testing;NA;40;Argentina;c_18.png;0;70,0;77,5;2066,899999952293;NA;703864,400;705323;7, 0;705323, 705635;Yes, I used the training information to provide estimates for countries in the same continent as the training. For example, the life expectancy in France is 83.5. Therefore, I estimated 80+ value for all European countries.;5;yes;no;49;male;yes;;no;
6uh5kzap14vk;2025-04-24;testing;NA;41;Burkina Faso;c_30.png;0;60,0;61,3;2574,400000000023;NA;705949,100;707915;6, 0;707915, 708195;Yes, I used the training information to provide estimates for countries in the same continent as the training. For example, the life expectancy in France is 83.5. Therefore, I estimated 80+ value for all European countries.;5;yes;no;49;male;yes;;no;
6uh5kzap14vk;2025-04-24;testing;NA;42;Fiji;c_57.png;0;65,0;67,5;1823,499999809312;NA;708531,700;710036;6, 5;710036, 710219;Yes, I used the training information to provide estimates for countries in the same continent as the training. For example, the life expectancy in France is 83.5. Therefore, I estimated 80+ value for all European countries.;5;yes;no;49;male;yes;;no;
6uh5kzap14vk;2025-04-24;testing;NA;43;Mongolia;c_50.png;1;72,0;72,0;3126,099999999977;NA;710365,400;712939;7, 2;712939, 713363;Yes, I used the training information to provide estimates for countries in the same continent as the training. For example, the life expectancy in France is 83.5. Therefore, I estimated 80+ value for all European countries.;5;yes;no;49;male;yes;;no;
6uh5kzap14vk;2025-04-24;testing;NA;44;Colombia;c_17.png;1;75,0;77,9;1952,199999999953;NA;713499,300;714955;7, 5;714955, 715307;Yes, I used the training information to provide estimates for countries in the same continent as the training. For example, the life expectancy in France is 83.5. Therefore, I estimated 80+ value for all European countries.;5;yes;no;49;male;yes;;no;
6uh5kzap14vk;2025-04-24;testing;NA;45;Samoa;c_66.png;0;70,0;71,8;3792,299999904586;NA;715466,300;718587;7, 0;718587, 718931;Yes, I used the training information to provide estimates for countries in the same continent as the training. For example, the life expectancy in France is 83.5. Therefore, I estimated 80+ value for all European countries.;5;yes;no;49;male;yes;;no;
6uh5kzap14vk;2025-04-24;testing;NA;46;Guinea-Bissau;c_55.png;0;72,0;64,3;2343,000000000000;NA;719284,500;721171;7, 2;721171, 721483;Yes, I used the training information to provide estimates for countries in the same continent as the training. For example, the life expectancy in France is 83.5. Therefore, I estimated 80+ value for all European countries.;5;yes;no;49;male;yes;;no;
6uh5kzap14vk;2025-04-24;testing;NA;47;Peru;c_22.png;0;70,0;77,9;2881,099999999977;NA;721634,400;723947;7, 0;723947, 724211;Yes, I used the training information to provide estimates for countries in the same continent as the training. For example, the life expectancy in France is 83.5. Therefore, I estimated 80+ value for all European countries.;5;yes;no;49;male;yes;;no;
6uh5kzap14vk;2025-04-24;testing;NA;48;Moldova;c_53.png;0;72,0;71,3;2092,099999999977;NA;724535,400;726179;7, 2;726179, 726467;Yes, I used the training information to provide estimates for countries in the same continent as the training. For example, the life expectancy in France is 83.5. Therefore, I estimated 80+ value for all European countries.;5;yes;no;49;male;yes;;no;
6uh5kzap14vk;2025-04-24;testing;NA;49;Dominica;c_71.png;0;70,0;71,3;3120,199999999953;NA;726635,300;729251;7, 0;729251, 729467;Yes, I used the training information to provide estimates for countries in the same continent as the training. For example, the life expectancy in France is 83.5. Therefore, I estimated 80+ value for all European countries.;5;yes;no;49;male;yes;;no;
6uh5kzap14vk;2025-04-24;testing;NA;50;Cuba;c_38.png;0;75,0;78,3;2338,800000000047;NA;729768,700;731427;7, 5;731427, 731907;Yes, I used the training information to provide estimates for countries in the same continent as the training. For example, the life expectancy in France is 83.5. Therefore, I estimated 80+ value for all European countries.;5;yes;no;49;male;yes;;no;
6uh5kzap14vk;2025-04-24;testing;NA;51;Guyana;c_59.png;1;75,0;70,3;1844,099999999977;NA;732119,400;733571;7, 5;733571, 733787;Yes, I used the training information to provide estimates for countries in the same continent as the training. For example, the life expectancy in France is 83.5. Therefore, I estimated 80+ value for all European countries.;5;yes;no;49;male;yes;;no;
6uh5kzap14vk;2025-04-24;testing;NA;52;Trinidad and Tobago;c_56.png;0;70,0;73,6;3122,400000000023;NA;733969,100;735387;7, -, NA, 0;735387, 735707, 736187, 736811;Yes, I used the training information to provide estimates for countries in the same continent as the training. For example, the life expectancy in France is 83.5. Therefore, I estimated 80+ value for all European countries.;5;yes;no;49;male;yes;;no;
6uh5kzap14vk;2025-04-24;testing;NA;53;Russia;c_6.png;0;82,0;73,3;2587,899999856949;NA;737103,500;738787;8, 2;738787, 739555;Yes, I used the training information to provide estimates for countries in the same continent as the training. For example, the life expectancy in France is 83.5. Therefore, I estimated 80+ value for all European countries.;5;yes;no;49;male;yes;;no;
6uh5kzap14vk;2025-04-24;testing;NA;54;Chile;c_31.png;0;75,0;81,4;7443,599999904633;NA;739703,500;745571;7, 5;745571, 747019;Yes, I used the training information to provide estimates for countries in the same continent as the training. For example, the life expectancy in France is 83.5. Therefore, I estimated 80+ value for all European countries.;5;yes;no;49;male;yes;;no;
6uh5kzap14vk;2025-04-24;testing;NA;55;Libya;c_42.png;0;70,0;71,1;2679,699999952340;NA;747155,600;749147;7, 0;749147, 749539;Yes, I used the training information to provide estimates for countries in the same continent as the training. For example, the life expectancy in France is 83.5. Therefore, I estimated 80+ value for all European countries.;5;yes;no;49;male;yes;;no;
6uh5kzap14vk;2025-04-24;testing;NA;56;Basketball;AC_text.png;;70,0;999,0;2179,300000000047;NA;749856,200;751435;7, 0;751435, 751715;Yes, I used the training information to provide estimates for countries in the same continent as the training. For example, the life expectancy in France is 83.5. Therefore, I estimated 80+ value for all European countries.;5;yes;no;49;male;yes;;no;
6uh5kzap14vk;2025-04-24;testing;NA;57;Brazil;c_5.png;0;80,0;76,0;4034,999999904656;NA;752056,600;755075;8, 0;755075, 755659;Yes, I used the training information to provide estimates for countries in the same continent as the training. For example, the life expectancy in France is 83.5. Therefore, I estimated 80+ value for all European countries.;5;yes;no;49;male;yes;;no;
6uh5kzap14vk;2025-04-24;testing;NA;58;Cook Islands;c_76.png;1;72,0;75,5;2793,199999952340;NA;756106,100;757723;7, 2;757723, 758763;Yes, I used the training information to provide estimates for countries in the same continent as the training. For example, the life expectancy in France is 83.5. Therefore, I estimated 80+ value for all European countries.;5;yes;no;49;male;yes;;no;
6uh5kzap14vk;2025-04-24;testing;NA;59;Papua New Guinea;c_36.png;0;70,0;66,3;3288,699999952340;NA;758906,600;761499;7, 0;761499, 761867;Yes, I used the training information to provide estimates for countries in the same continent as the training. For example, the life expectancy in France is 83.5. Therefore, I estimated 80+ value for all European countries.;5;yes;no;49;male;yes;;no;
6uh5kzap14vk;2025-04-24;testing;NA;60;France;c_14.png;1;83,4;83,5;2836,199999952340;NA;762207,100;763267;8, 3, ., 4;763267, 764123, 764523, 764835;Yes, I used the training information to provide estimates for countries in the same continent as the training. For example, the life expectancy in France is 83.5. Therefore, I estimated 80+ value for all European countries.;5;yes;no;49;male;yes;;no;
6uh5kzap14vk;2025-04-24;testing;NA;61;Nepal;c_25.png;0;75,0;70,6;4105,899999856949;NA;765057,500;768475;7, 5;768475, 769010;Yes, I used the training information to provide estimates for countries in the same continent as the training. For example, the life expectancy in France is 83.5. Therefore, I estimated 80+ value for all European countries.;5;yes;no;49;male;yes;;no;
6uh5kzap14vk;2025-04-24;testing;NA;62;Ukraine;c_20.png;0;75,0;72,0;2091,599999856902;NA;769175,800;770667;7, 5;770667, 771091;Yes, I used the training information to provide estimates for countries in the same continent as the training. For example, the life expectancy in France is 83.5. Therefore, I estimated 80+ value for all European countries.;5;yes;no;49;male;yes;;no;
6uh5kzap14vk;2025-04-24;testing;NA;63;New Zealand;c_47.png;0;82,0;82,0;24328,199999856995;NA;771275,200;794460;8, 2;794460, 795275;Yes, I used the training information to provide estimates for countries in the same continent as the training. For example, the life expectancy in France is 83.5. Therefore, I estimated 80+ value for all European countries.;5;yes;no;49;male;yes;;no;
6uh5kzap14vk;2025-04-24;testing;NA;64;Haiti;c_37.png;0;65,0;65,1;3222,499999952270;NA;795612,800;798067;6, 5;798067, 798691;Yes, I used the training information to provide estimates for countries in the same continent as the training. For example, the life expectancy in France is 83.5. Therefore, I estimated 80+ value for all European countries.;5;yes;no;49;male;yes;;no;
6uh5kzap14vk;2025-04-24;testing;NA;65;Vatican City;c_80.png;0;85,0;83,1;2620,999999952270;NA;798846,300;800539;8, 5;800539, 801259;Yes, I used the training information to provide estimates for countries in the same continent as the training. For example, the life expectancy in France is 83.5. Therefore, I estimated 80+ value for all European countries.;5;yes;no;49;male;yes;;no;
6uh5kzap14vk;2025-04-24;testing;NA;66;Greece;c_39.png;0;82,0;82,0;3794,099999856902;NA;801480,300;803491;8, 2;803491, 805043;Yes, I used the training information to provide estimates for countries in the same continent as the training. For example, the life expectancy in France is 83.5. Therefore, I estimated 80+ value for all European countries.;5;yes;no;49;male;yes;;no;
6uh5kzap14vk;2025-04-24;testing;NA;67;Saint Vincent and the Grenadines;c_68.png;0;70,0;71,4;3353,799999856972;NA;805281,600;807955;7, 0;807955, 808291;Yes, I used the training information to provide estimates for countries in the same continent as the training. For example, the life expectancy in France is 83.5. Therefore, I estimated 80+ value for all European countries.;5;yes;no;49;male;yes;;no;
6uh5kzap14vk;2025-04-24;testing;NA;68;Germany;c_12.png;0;85,0;81,5;1954,999999952270;NA;808648,300;809971;8, 5;809971, 810387;Yes, I used the training information to provide estimates for countries in the same continent as the training. For example, the life expectancy in France is 83.5. Therefore, I estimated 80+ value for all European countries.;5;yes;no;49;male;yes;;no;
6uh5kzap14vk;2025-04-24;testing;NA;69;Croatia;c_49.png;0;80,0;78,8;2420,099999904633;NA;810615,500;812419;8, 0;812419, 812643;Yes, I used the training information to provide estimates for countries in the same continent as the training. For example, the life expectancy in France is 83.5. Therefore, I estimated 80+ value for all European countries.;5;yes;no;49;male;yes;;no;
6uh5kzap14vk;2025-04-24;testing;NA;70;Tuvalu;c_78.png;0;70,0;67,3;2401,899999904679;NA;813049,700;814531;7, 0;814531, 815131;Yes, I used the training information to provide estimates for countries in the same continent as the training. For example, the life expectancy in France is 83.5. Therefore, I estimated 80+ value for all European countries.;5;yes;no;49;male;yes;;no;
6uh5kzap14vk;2025-04-24;testing;NA;71;Ecuador;c_33.png;0;70,0;77,6;2824,999999856926;NA;815466,400;817507;7, 0;817507, 817907;Yes, I used the training information to provide estimates for countries in the same continent as the training. For example, the life expectancy in France is 83.5. Therefore, I estimated 80+ value for all European countries.;5;yes;no;49;male;yes;;no;
6uh5kzap14vk;2025-04-24;testing;NA;72;Ivory Coast;c_24.png;0;70,0;62,1;2510,400000000023;NA;818317,100;820131;7, 0;820131, 820411;Yes, I used the training information to provide estimates for countries in the same continent as the training. For example, the life expectancy in France is 83.5. Therefore, I estimated 80+ value for all European countries.;5;yes;no;49;male;yes;;no;
6uh5kzap14vk;2025-04-24;testing;NA;73;Syria;c_29.png;0;65,0;72,6;2839,599999904633;NA;820851,000;822811;6, 5;822811, 823523;Yes, I used the training information to provide estimates for countries in the same continent as the training. For example, the life expectancy in France is 83.5. Therefore, I estimated 80+ value for all European countries.;5;yes;no;49;male;yes;;no;
6uh5kzap14vk;2025-04-24;testing;NA;74;Paraguay;c_45.png;0;72,0;74,0;2398,499999809312;NA;823700,700;825516;7, 2;825516, 825939;Yes, I used the training information to provide estimates for countries in the same continent as the training. For example, the life expectancy in France is 83.5. Therefore, I estimated 80+ value for all European countries.;5;yes;no;49;male;yes;;no;
6uh5kzap14vk;2025-04-24;testing;NA;75;El Salvador;c_43.png;0;75,0;72,3;2485,399999809219;NA;826101,800;827963;7, 5;827963, 828395;Yes, I used the training information to provide estimates for countries in the same continent as the training. For example, the life expectancy in France is 83.5. Therefore, I estimated 80+ value for all European countries.;5;yes;no;49;male;yes;;no;
6uh5kzap14vk;2025-04-24;testing;NA;76;Democratic Republic of the Congo;c_11.png;0;55,0;62,1;3905,499999952270;NA;828601,800;831299;5, 5;831299, 832331;Yes, I used the training information to provide estimates for countries in the same continent as the training. For example, the life expectancy in France is 83.5. Therefore, I estimated 80+ value for all European countries.;5;yes;no;49;male;yes;;no;
6uh5kzap14vk;2025-04-24;testing;NA;77;Costa Rica;c_48.png;1;65,0;81,0;7556,099999999977;NA;832519,400;839027;6, 5;839027, 839843;Yes, I used the training information to provide estimates for countries in the same continent as the training. For example, the life expectancy in France is 83.5. Therefore, I estimated 80+ value for all European countries.;5;yes;no;49;male;yes;;no;
6uh5kzap14vk;2025-04-24;testing;NA;78;Venezuela;c_26.png;0;70,0;72,7;4069,199999999953;NA;840086,300;841571;7, -, NA, 0;841571, 842315, 843147, 843659;Yes, I used the training information to provide estimates for countries in the same continent as the training. For example, the life expectancy in France is 83.5. Therefore, I estimated 80+ value for all European countries.;5;yes;no;49;male;yes;;no;
6uh5kzap14vk;2025-04-24;testing;NA;79;Jamaica;c_52.png;1;70,0;71,6;2688,599999952363;NA;844170,700;845907;7, 0;845907, 846547;Yes, I used the training information to provide estimates for countries in the same continent as the training. For example, the life expectancy in France is 83.5. Therefore, I estimated 80+ value for all European countries.;5;yes;no;49;male;yes;;no;
6uh5kzap14vk;2025-04-24;testing;NA;80;Benin;c_34.png;0;60,0;61,0;3267,699999999953;NA;846871,800;849524;6, 0;849524, 849843;Yes, I used the training information to provide estimates for countries in the same continent as the training. For example, the life expectancy in France is 83.5. Therefore, I estimated 80+ value for all European countries.;5;yes;no;49;male;yes;;no;
6uh5kzap14vk;2025-04-24;testing;NA;81;India;c_2.png;0;70,0;72,2;2176,000000000000;NA;850155,500;851747;7, 0;851747, 852035;Yes, I used the training information to provide estimates for countries in the same continent as the training. For example, the life expectancy in France is 83.5. Therefore, I estimated 80+ value for all European countries.;5;yes;no;49;male;yes;;no;
6uh5kzap14vk;2025-04-24;testing;NA;82;Tanzania;c_16.png;0;70,0;67,2;2679,400000000023;NA;852356,100;854347;7, 0;854347, 854739;Yes, I used the training information to provide estimates for countries in the same continent as the training. For example, the life expectancy in France is 83.5. Therefore, I estimated 80+ value for all European countries.;5;yes;no;49;male;yes;;no;
munr1sh9ezc8;2025-04-24;training;1;0;Brunei;c_62.png;1;65,0;75,5;5032,700000071527;133;34355,600;37802;6, 5;37802, 38426;Based it on the economy of the country (what I know) and the surronding countries from the example if they were close demographically and what number they had etc.;5;yes;no;27;male;yes;;no;
munr1sh9ezc8;2025-04-24;training;1;1;Niue;c_79.png;1;68,0;70,1;4882,000000023843;66;41655,600;44919;6, 8;44919, 45882;Based it on the economy of the country (what I know) and the surronding countries from the example if they were close demographically and what number they had etc.;5;yes;no;27;male;yes;;no;
munr1sh9ezc8;2025-04-24;training;1;2;Mongolia;c_50.png;1;71,0;72,0;2181,500000095366;98;48489,400;49850;7, 1;49850, 50066;Based it on the economy of the country (what I know) and the surronding countries from the example if they were close demographically and what number they had etc.;5;yes;no;27;male;yes;;no;
munr1sh9ezc8;2025-04-24;training;1;3;France;c_14.png;1;76,0;83,5;4132,900000047681;134;52239,300;53613;7, 7, NA, 6;53613, 53968, 55643, 55789;Based it on the economy of the country (what I know) and the surronding countries from the example if they were close demographically and what number they had etc.;5;yes;no;27;male;yes;;no;
munr1sh9ezc8;2025-04-24;training;1;4;Costa Rica;c_48.png;1;74,0;81,0;4365,900000095367;116;57689,500;59536;7, 0, NA, 4;59536, 59854, 60953, 61295;Based it on the economy of the country (what I know) and the surronding countries from the example if they were close demographically and what number they had etc.;5;yes;no;27;male;yes;;no;
munr1sh9ezc8;2025-04-24;training;1;5;Cook Islands;c_76.png;1;74,0;75,5;2698,400000095367;117;63273,000;64896;7, 4;64896, 65533;Based it on the economy of the country (what I know) and the surronding countries from the example if they were close demographically and what number they had etc.;5;yes;no;27;male;yes;;no;
munr1sh9ezc8;2025-04-24;training;1;6;Egypt;c_9.png;1;72,0;71,8;10516,500000047687;116;66989,200;76114;7, 2;76114, 76678;Based it on the economy of the country (what I know) and the surronding countries from the example if they were close demographically and what number they had etc.;5;yes;no;27;male;yes;;no;
munr1sh9ezc8;2025-04-24;training;1;7;Jamaica;c_52.png;1;72,0;71,6;9731,300000071526;83;78856,500;83828;7, 3, NA, 2;83828, 84959, 86714, 86804;Based it on the economy of the country (what I know) and the surronding countries from the example if they were close demographically and what number they had etc.;5;yes;no;27;male;yes;;no;
munr1sh9ezc8;2025-04-24;training;1;8;Colombia;c_17.png;1;73,0;77,9;2432,800000023839;101;90073,300;91458;7, 3;91458, 91908;Based it on the economy of the country (what I know) and the surronding countries from the example if they were close demographically and what number they had etc.;5;yes;no;27;male;yes;;no;
munr1sh9ezc8;2025-04-24;training;1;9;Guyana;c_59.png;1;69,0;70,3;3048,400000023845;116;93406,700;95425;6, 9;95425, 95670;Based it on the economy of the country (what I know) and the surronding countries from the example if they were close demographically and what number they had etc.;5;yes;no;27;male;yes;;no;
munr1sh9ezc8;2025-04-24;training;1;10;Nigeria;c_4.png;1;70,0;54,6;2815,400000071531;116;97323,400;98509;7, 0;98509, 99316;Based it on the economy of the country (what I know) and the surronding countries from the example if they were close demographically and what number they had etc.;5;yes;no;27;male;yes;;no;
munr1sh9ezc8;2025-04-24;training;1;11;Uruguay;c_51.png;1;74,0;78,3;3132,200000095370;116;106523,200;107864;7, 4;107864, 109105;Based it on the economy of the country (what I know) and the surronding countries from the example if they were close demographically and what number they had etc.;5;yes;no;27;male;yes;;no;
munr1sh9ezc8;2025-04-24;training;2;0;Niue;c_79.png;1;68,0;70,1;6682,500000095373;84;111756,900;117622;6, 8;117622, 117716;Based it on the economy of the country (what I know) and the surronding countries from the example if they were close demographically and what number they had etc.;5;yes;no;27;male;yes;;no;
munr1sh9ezc8;2025-04-24;training;2;1;Costa Rica;c_48.png;1;77,0;81,0;3698,500000023836;116;119307,100;120668;7, 7;120668, 122223;Based it on the economy of the country (what I know) and the surronding countries from the example if they were close demographically and what number they had etc.;5;yes;no;27;male;yes;;no;
munr1sh9ezc8;2025-04-24;training;2;2;Cook Islands;c_76.png;1;72,0;75,5;5948,800000071526;133;123973,500;128099;8, 3, NA, NA, 7, 2;128099, 128381, 128865, 129042, 129198, 129295;Based it on the economy of the country (what I know) and the surronding countries from the example if they were close demographically and what number they had etc.;5;yes;no;27;male;yes;;no;
munr1sh9ezc8;2025-04-24;training;2;3;France;c_14.png;1;83,0;83,5;2698,300000047690;99;130823,900;132263;8, 3;132263, 132502;Based it on the economy of the country (what I know) and the surronding countries from the example if they were close demographically and what number they had etc.;5;yes;no;27;male;yes;;no;
munr1sh9ezc8;2025-04-24;training;2;4;Mongolia;c_50.png;1;72,0;72,0;2399,000000000000;100;134374,000;135754;7, 2;135754, 136195;Based it on the economy of the country (what I know) and the surronding countries from the example if they were close demographically and what number they had etc.;5;yes;no;27;male;yes;;no;
munr1sh9ezc8;2025-04-24;training;2;5;Nigeria;c_4.png;1;55,5;54,6;2765,000000047672;115;137640,700;139026;5, 5, ., 5;139026, 139287, 139426, 139777;Based it on the economy of the country (what I know) and the surronding countries from the example if they were close demographically and what number they had etc.;5;yes;no;27;male;yes;;no;
munr1sh9ezc8;2025-04-24;training;2;6;Uruguay;c_51.png;1;82,0;78,3;3348,100000047678;83;141424,100;142538;7, NA, 8, 2;142538, 143170, 143621, 144222;Based it on the economy of the country (what I know) and the surronding countries from the example if they were close demographically and what number they had etc.;5;yes;no;27;male;yes;;no;
munr1sh9ezc8;2025-04-24;training;2;7;Colombia;c_17.png;1;77,0;77,9;2350,000000071537;101;145740,800;146798;7, 7;146798, 147640;Based it on the economy of the country (what I know) and the surronding countries from the example if they were close demographically and what number they had etc.;5;yes;no;27;male;yes;;no;
munr1sh9ezc8;2025-04-24;training;2;8;Jamaica;c_52.png;1;75,0;71,6;2431,000000047672;115;148974,200;150227;7, 5;150227, 151126;Based it on the economy of the country (what I know) and the surronding countries from the example if they were close demographically and what number they had etc.;5;yes;no;27;male;yes;;no;
munr1sh9ezc8;2025-04-24;training;2;9;Egypt;c_9.png;1;71,0;71,8;4266,200000095356;150;152224,200;153342;7, 0, NA, 1;153342, 153622, 155671, 156156;Based it on the economy of the country (what I know) and the surronding countries from the example if they were close demographically and what number they had etc.;5;yes;no;27;male;yes;;no;
munr1sh9ezc8;2025-04-24;training;2;10;Brunei;c_62.png;1;69,0;75,5;2782,500000047672;100;157257,700;158993;6, 9;158993, 159115;Based it on the economy of the country (what I know) and the surronding countries from the example if they were close demographically and what number they had etc.;5;yes;no;27;male;yes;;no;
munr1sh9ezc8;2025-04-24;training;2;11;Guyana;c_59.png;1;68,0;70,3;1883,300000071526;101;160941,000;161790;6, 8;161790, 162115;Based it on the economy of the country (what I know) and the surronding countries from the example if they were close demographically and what number they had etc.;5;yes;no;27;male;yes;;no;
munr1sh9ezc8;2025-04-24;training;3;0;Mongolia;c_50.png;1;73,0;72,0;3148,500000000000;132;164641,000;166814;7, 3;166814, 167458;Based it on the economy of the country (what I know) and the surronding countries from the example if they were close demographically and what number they had etc.;5;yes;no;27;male;yes;;no;
munr1sh9ezc8;2025-04-24;training;3;1;France;c_14.png;1;83,5;83,5;2349,600000000006;100;168607,400;169923;8, 3, ., 5;169923, 170003, 170239, 170375;Based it on the economy of the country (what I know) and the surronding countries from the example if they were close demographically and what number they had etc.;5;yes;no;27;male;yes;;no;
munr1sh9ezc8;2025-04-24;training;3;2;Nigeria;c_4.png;1;54,3;54,6;2598,200000023848;148;171740,400;172997;5, 4, ., 3;172997, 173316, 173417, 173904;Based it on the economy of the country (what I know) and the surronding countries from the example if they were close demographically and what number they had etc.;5;yes;no;27;male;yes;;no;
munr1sh9ezc8;2025-04-24;training;3;3;Egypt;c_9.png;1;73,0;71,8;2798,600000023842;83;175224,500;176391;7, 3;176391, 176725;Based it on the economy of the country (what I know) and the surronding countries from the example if they were close demographically and what number they had etc.;5;yes;no;27;male;yes;;no;
munr1sh9ezc8;2025-04-24;training;3;4;Uruguay;c_51.png;1;78,0;78,3;2250,399999999994;101;178724,600;179723;7, 8;179723, 179999;Based it on the economy of the country (what I know) and the surronding countries from the example if they were close demographically and what number they had etc.;5;yes;no;27;male;yes;;no;
munr1sh9ezc8;2025-04-24;training;3;5;Cook Islands;c_76.png;1;75,0;75,5;1950,800000071526;101;181708,000;182825;7, 5;182825, 183221;Based it on the economy of the country (what I know) and the surronding countries from the example if they were close demographically and what number they had etc.;5;yes;no;27;male;yes;;no;
